Timestamp (us),Gyroscope X (deg/s),Gyroscope Y (deg/s),Gyroscope Z (deg/s),Accelerometer X (g),Accelerometer Y (g),Accelerometer Z (g)
65801927,67.560974,1.524390,-17.073172,0.977539,0.164062,-0.101074
1762435482300186,1.097561,14.329268,3.048780,0.977051,0.161621,-0.101562
1762435482310310,-32.195122,27.804878,12.256098,0.977539,0.162598,-0.099121
1762435482320436,3.109756,35.914635,4.695122,0.978516,0.165527,-0.095215
1762435482330560,36.158539,33.170731,-2.621951,0.979492,0.166504,-0.094727
1762435482340686,16.158537,32.073170,0.426829,0.978516,0.165527,-0.100098
1762435482350810,-28.292683,30.609756,9.329268,0.978027,0.166016,-0.104492
1762435482360934,-31.097561,19.756098,7.926829,0.978027,0.168945,-0.105469
1762435482371059,12.804878,5.243903,-5.182927,0.978027,0.172363,-0.105469
1762435482381184,31.951220,-2.134146,-11.890244,0.977051,0.172852,-0.107422
1762435482391309,14.634147,-1.280488,-9.146341,0.976562,0.170898,-0.107910
1762435482401434,-17.134148,1.158537,-0.548781,0.976562,0.169434,-0.104492
1762435482411560,-16.280489,3.780488,4.939024,0.977539,0.168457,-0.097656
1762435482421683,-0.853659,7.439024,6.707317,0.979492,0.167969,-0.091797
1762435482431808,14.939025,17.134148,6.036585,0.979492,0.166992,-0.088379
1762435482441933,9.085366,27.073172,9.573171,0.979492,0.166016,-0.086914
1762435482452058,-1.585366,34.146343,12.926829,0.979980,0.164551,-0.085449
1762435482462183,11.158537,33.963417,12.134147,0.980469,0.164551,-0.083496
1762435482472308,40.243904,30.792685,8.597561,0.980957,0.163574,-0.082031
1762435482482434,42.560978,27.378050,9.573171,0.980957,0.162598,-0.083496
1762435482492558,16.829269,21.829269,14.573171,0.979980,0.162109,-0.085449
1762435482502682,20.365854,20.731709,13.719513,0.979980,0.164062,-0.084473
1762435482512807,58.170734,12.317074,2.256098,0.980957,0.170410,-0.083008
1762435482522932,105.792686,4.207317,-11.890244,0.980957,0.168945,-0.083496
1762435482533056,79.695122,-2.073171,-6.951220,0.980957,0.166504,-0.084961
1762435482543181,38.658539,-10.182927,0.000000,0.980957,0.166504,-0.085449
1762435482553307,45.426830,-10.792684,-1.402439,0.980957,0.166504,-0.081543
1762435482563431,65.914635,-4.634147,-6.036585,0.980957,0.165527,-0.077637
1762435482573556,63.902439,4.817073,-8.719512,0.980957,0.165039,-0.076172
1762435482583681,57.621952,16.890244,-8.536586,0.981934,0.165039,-0.074707
1762435482593805,60.365856,22.134148,-9.817074,0.983398,0.164551,-0.072754
1762435482603930,42.378048,14.695123,-7.378049,0.983887,0.164551,-0.073242
1762435482614055,11.341464,0.060976,-1.402439,0.983398,0.163086,-0.075684
1762435482624181,-19.695122,-11.646341,3.780488,0.981934,0.163086,-0.079102
1762435482634306,-57.195122,-17.073172,9.268293,0.981934,0.162598,-0.078125
1762435482644430,-50.304878,-11.036586,8.414635,0.982422,0.161621,-0.076172
1762435482654555,-35.609756,-3.048780,5.060976,0.982422,0.161621,-0.075195
1762435482664679,-43.414635,-3.902439,6.280488,0.982422,0.161133,-0.075684
1762435482674804,-68.475609,-11.890244,11.402439,0.982910,0.160645,-0.076660
1762435482684929,-91.158539,-20.304878,14.451220,0.982422,0.160156,-0.077637
1762435482695054,-99.878052,-17.987804,15.609756,0.982910,0.159180,-0.076172
1762435482705179,-71.951218,-7.134147,10.731708,0.983398,0.158691,-0.072266
1762435482715304,-38.963417,3.170732,3.902439,0.983887,0.158203,-0.070801
1762435482725428,-52.987804,3.780488,6.585366,0.983887,0.157715,-0.071777
1762435482735553,-69.573174,-5.914634,10.365854,0.983887,0.157227,-0.071289
1762435482745678,-56.158539,-12.804878,8.231708,0.983887,0.156250,-0.071289
1762435482755803,-48.414635,-18.048780,8.414635,0.983398,0.155762,-0.070312
1762435482765928,-16.646341,-12.621951,3.170732,0.983398,0.154785,-0.070312
1762435482776053,-30.121952,-11.829268,4.817073,0.982422,0.154297,-0.071289
1762435482786177,-7.012195,-10.670732,0.487805,0.982910,0.153809,-0.071289
1762435482796302,5.365854,-14.756098,-2.804878,0.983887,0.153809,-0.071289
1762435482806427,23.597561,-19.268293,-7.682927,0.983887,0.154785,-0.071777
1762435482816552,33.170731,-19.207317,-10.243902,0.984375,0.155762,-0.073242
1762435482826676,32.134148,-18.048780,-11.402439,0.983887,0.155762,-0.074707
1762435482836801,28.597561,-17.134148,-12.439025,0.983887,0.155762,-0.075684
1762435482846926,34.512196,-17.012196,-13.658537,0.983398,0.154785,-0.076172
1762435482857051,11.829268,-17.378050,-8.353659,0.982422,0.153809,-0.077637
1762435482867176,-12.195122,-14.024390,-3.963415,0.981934,0.153809,-0.078613
1762435482877300,-22.804878,-9.146341,-2.987805,0.982422,0.155762,-0.079590
1762435482887425,-18.048780,-4.878049,-6.707317,0.983887,0.157715,-0.079590
1762435482897550,-10.670732,-7.865854,-10.426829,0.983887,0.159180,-0.081055
1762435482907675,-9.268293,-8.597561,-12.012196,0.982910,0.159668,-0.084473
1762435482917800,-30.487806,-8.902439,-9.390244,0.981445,0.159668,-0.088379
1762435482927926,-40.121952,-7.500000,-8.963415,0.980957,0.161133,-0.089844
1762435482938050,-31.707317,-9.756098,-12.012196,0.980957,0.162598,-0.089844
1762435482948175,-22.621952,-9.268293,-15.121952,0.980957,0.163086,-0.089844
1762435482958299,-26.219513,-6.890244,-13.353659,0.980469,0.162598,-0.090332
1762435482968424,-49.512196,-4.939024,-5.304878,0.979980,0.161621,-0.090820
1762435482978549,-65.609756,-3.780488,0.609756,0.980469,0.161621,-0.089844
1762435482988674,-47.865856,-6.768293,-0.914634,0.980957,0.163574,-0.090332
1762435482998799,-22.439026,-8.780488,-5.426829,0.980469,0.164551,-0.092285
1762435483008923,-18.780489,-12.012196,-5.914634,0.979980,0.165527,-0.095215
1762435483019048,-19.634148,-14.146341,-3.841464,0.979492,0.166016,-0.096680
1762435483029173,-8.475610,-16.280489,-4.390244,0.979492,0.166504,-0.096680
1762435483039299,14.329268,-13.414635,-7.012195,0.979492,0.166504,-0.095703
1762435483049423,14.024390,-10.060976,-2.012195,0.979492,0.165039,-0.094238
1762435483059550,6.768293,-5.121951,3.963415,0.979004,0.164551,-0.093262
1762435483069672,-0.975610,2.134146,8.597561,0.979004,0.164551,-0.092773
1762435483079797,8.536586,6.646342,9.146341,0.979004,0.165527,-0.092285
1762435483089922,20.609756,7.134147,6.890244,0.979004,0.166504,-0.092773
1762435483100047,28.109756,6.524390,5.243903,0.978516,0.166992,-0.094727
1762435483110173,23.719513,8.658537,6.341464,0.978027,0.167480,-0.097656
1762435483120297,25.975611,8.902439,4.512195,0.978027,0.168945,-0.098633
1762435483130424,39.756100,11.036586,0.609756,0.978027,0.169434,-0.098633
1762435483140546,38.170734,13.536586,1.158537,0.978516,0.169922,-0.098145
1762435483150671,33.475609,19.024391,1.646342,0.978516,0.169922,-0.097656
1762435483160796,25.853659,24.024391,3.719512,0.978027,0.168945,-0.096680
1762435483170921,20.853659,26.463415,6.097561,0.978027,0.167969,-0.095703
1762435483181046,9.451220,27.256098,8.658537,0.977539,0.167480,-0.095703
1762435483191170,4.390244,28.231709,10.121951,0.978027,0.167480,-0.095703
1762435483201297,6.707317,27.743902,8.841464,0.978516,0.167969,-0.095215
1762435483211420,18.353659,24.695122,4.390244,0.979492,0.167480,-0.095215
1762435483221545,21.951220,22.743902,3.719512,0.979980,0.166992,-0.096680
1762435483231669,14.512196,19.268293,5.792683,0.980469,0.165527,-0.096680
1762435483241794,20.365854,13.902439,4.329268,0.980469,0.164062,-0.095703
1762435483251919,23.109756,11.463415,4.634147,0.979492,0.162598,-0.095703
1762435483262044,14.451220,10.365854,7.195122,0.979004,0.160156,-0.095215
1762435483272171,5.792683,13.414635,9.817074,0.979492,0.158691,-0.093262
1762435483282293,54.573174,7.865854,-6.097561,0.980469,0.167480,-0.091797
1762435483292418,106.951225,4.085366,-20.853659,0.980957,0.167480,-0.095215
1762435483302543,77.317078,1.158537,-16.219513,0.981934,0.166504,-0.098145
1762435483312668,62.804878,-5.487805,-10.792684,0.981445,0.165527,-0.100098
1762435483322793,49.085365,-18.170732,-10.304878,0.981445,0.162109,-0.099121
1762435483332918,22.500000,-17.804878,-4.146341,0.977539,0.163574,-0.101074
1762435483343044,51.097561,2.012195,-11.707317,0.978027,0.164062,-0.098633
1762435483353168,21.158537,12.378049,-6.585366,0.979004,0.163086,-0.090820
1762435483363293,3.170732,10.853659,-1.829268,0.980957,0.165039,-0.083008
1762435483373417,77.804878,21.341463,-14.817074,0.980957,0.164551,-0.081055
1762435483383542,49.756100,21.341463,-11.768293,0.980469,0.164551,-0.085449
1762435483393667,-21.585367,9.146341,-0.731707,0.979492,0.164551,-0.087402
1762435483403792,-18.048780,1.463415,-0.792683,0.980469,0.164551,-0.084961
1762435483413917,-0.426829,5.487805,-3.109756,0.980957,0.164551,-0.083496
1762435483424041,8.536586,13.292684,-4.085366,0.980957,0.164551,-0.082031
1762435483434166,22.987806,19.207317,-6.219512,0.981445,0.164551,-0.080566
1762435483444291,14.573171,15.365854,-5.670732,0.980957,0.164551,-0.083008
1762435483454416,-27.621952,0.487805,2.439024,0.980957,0.164551,-0.083496
1762435483464540,-26.951220,-9.756098,3.597561,0.980469,0.164551,-0.080566
1762435483474665,3.963415,-7.743903,-0.853659,0.980469,0.164551,-0.078613
1762435483484791,-2.560976,-4.573171,0.060976,0.980469,0.164551,-0.080078
1762435483494915,-32.256100,-1.036585,3.780488,0.980957,0.164551,-0.079590
1762435483505040,-10.426829,3.536585,-0.060976,0.981445,0.164551,-0.076660
1762435483515165,16.219513,3.597561,-3.475610,0.981934,0.164551,-0.076660
1762435483525289,-13.231708,-6.280488,0.731707,0.981934,0.165039,-0.079590
1762435483535414,-46.707317,-13.414635,5.853659,0.981934,0.165039,-0.080078
1762435483545539,-53.841465,-9.451220,6.646342,0.981445,0.165039,-0.078125
1762435483555664,-41.646343,-4.512195,3.780488,0.980957,0.165039,-0.076660
1762435483565789,-38.902439,-1.585366,3.414634,0.980957,0.165039,-0.076660
1762435483575914,-47.743904,-5.609756,4.329268,0.980957,0.165039,-0.077637
1762435483586038,-87.256096,-15.060976,8.353659,0.980957,0.165527,-0.080566
1762435483596164,-116.646347,-17.073172,12.500000,0.981934,0.164551,-0.079590
1762435483606288,43.353661,12.500000,-13.231708,0.980957,0.165527,-0.084473
1762435483616413,-108.353661,-26.341465,9.207317,0.981934,0.164062,-0.083984
1762435483626538,-45.121952,-31.707317,0.365854,0.981445,0.165039,-0.083008
1762435483636663,-37.378048,-31.036587,-0.304878,0.982422,0.165039,-0.082520
1762435483646787,-16.829269,-18.353659,-2.500000,0.982422,0.165527,-0.080078
1762435483656912,-9.756098,-14.695123,-1.402439,0.983398,0.165039,-0.073242
1762435483667037,23.658537,-16.097561,-4.329268,0.983398,0.165527,-0.071777
1762435483677162,34.573170,-12.134147,-5.548780,0.981934,0.165527,-0.075684
1762435483687287,28.902439,-17.134148,-2.621951,0.981445,0.165039,-0.079590
1762435483697411,9.207317,-31.219513,0.548781,0.980469,0.164551,-0.082031
1762435483707536,14.268293,-37.378048,-0.914634,0.979492,0.165527,-0.086914
1762435483717661,40.243904,-32.560978,-5.670732,0.979004,0.164551,-0.089844
1762435483727786,-16.524391,-32.317074,3.841464,0.979492,0.163574,-0.088867
1762435483737911,1.036585,-27.804878,0.182927,0.978027,0.166992,-0.087891
1762435483748035,56.890244,-19.756098,-10.000000,0.979004,0.165039,-0.087402
1762435483758160,17.865854,-3.353659,-6.646342,0.979980,0.166504,-0.094238
1762435483768285,-3.597561,0.548781,-4.939024,0.980469,0.167969,-0.095215
1762435483778410,-1.951220,-15.548780,-3.719512,0.982910,0.167480,-0.094238
1762435483788535,5.487805,-18.414635,-4.329268,0.979492,0.167480,-0.101562
1762435483798660,-29.817074,-11.463415,1.707317,0.978516,0.165039,-0.106934
1762435483808784,-55.121952,0.975610,2.439024,0.977051,0.167969,-0.110840
1762435483818909,-68.658539,-8.292683,2.378049,0.978516,0.168457,-0.104980
1762435483829034,-4.817073,1.707317,-4.451220,0.978027,0.168457,-0.103516
1762435483839159,-7.743903,5.853659,-0.426829,0.976562,0.168945,-0.107422
1762435483849284,-26.707317,1.829268,3.902439,0.976562,0.168945,-0.108887
1762435483859409,-18.475611,-6.158537,4.024390,0.975586,0.169434,-0.111328
1762435483869533,-53.353661,-22.439026,9.390244,0.974121,0.169922,-0.116699
1762435483879658,-57.256100,-12.743903,9.634147,0.975098,0.169922,-0.113770
1762435483889783,44.878052,1.646342,-5.609756,0.977051,0.169922,-0.107422
1762435483899908,89.512199,14.207317,-13.841464,0.976562,0.169922,-0.113281
1762435483910033,2.317073,3.231707,-0.975610,0.976562,0.170410,-0.119629
1762435483920158,-4.756098,-4.268293,2.256098,0.976562,0.170410,-0.117676
1762435483930283,79.085365,-3.841464,-10.243902,0.976562,0.170410,-0.117188
1762435483940407,63.292683,-10.975610,-7.195122,0.974609,0.170410,-0.122070
1762435483950532,4.634147,-7.195122,2.012195,0.974609,0.170410,-0.122070
1762435483960657,55.670734,11.585366,-8.597561,0.974121,0.170410,-0.120605
1762435483970783,66.158539,25.000000,-10.060976,0.973633,0.170410,-0.123047
1762435483980907,48.292683,17.439024,-5.609756,0.974121,0.170410,-0.125977
1762435483991034,30.426830,5.792683,-4.085366,0.974121,0.170410,-0.128418
1762435484001156,14.817074,3.414634,-2.317073,0.975098,0.170410,-0.129883
1762435484011281,2.317073,10.426829,-1.890244,0.974609,0.170410,-0.129883
1762435484021406,29.146341,29.817074,-7.134147,0.976074,0.170410,-0.125977
1762435484031531,85.304878,40.670734,-15.853659,0.975098,0.169922,-0.125488
1762435484041656,52.804878,33.475609,-10.914635,0.974121,0.170898,-0.130371
1762435484051781,-57.195122,-4.268293,5.548780,0.973633,0.170410,-0.127930
1762435484061907,34.451221,19.329269,-6.097561,0.974121,0.170410,-0.124512
1762435484072030,39.390244,27.317074,-8.292683,0.974609,0.171387,-0.123535
1762435484082155,28.597561,29.024391,-6.463415,0.975098,0.171387,-0.122070
1762435484092280,32.743904,32.012196,-6.585366,0.975586,0.172363,-0.122070
1762435484102405,30.060976,19.085367,-4.756098,0.976074,0.170898,-0.123047
1762435484112530,24.390244,24.085367,-3.963415,0.975098,0.170898,-0.127930
1762435484122654,-16.280489,4.695122,2.987805,0.975098,0.170898,-0.127930
1762435484132780,-11.951220,4.207317,0.792683,0.976074,0.171387,-0.124023
1762435484142904,7.134147,6.585366,-3.597561,0.976074,0.171387,-0.123047
1762435484153028,-20.304878,8.536586,0.365854,0.976074,0.171875,-0.121094
1762435484163153,21.036587,22.560976,-6.951220,0.976562,0.172363,-0.114746
1762435484173278,7.926829,9.634147,-6.829268,0.977051,0.173340,-0.114258
1762435484183403,2.378049,15.670732,-4.634147,0.976562,0.172852,-0.117188
1762435484193528,-46.951221,1.585366,2.682927,0.976562,0.172852,-0.117188
1762435484203654,-34.207317,6.463415,2.317073,0.976562,0.172852,-0.113770
1762435484213778,-15.182927,1.463415,-0.365854,0.975586,0.172852,-0.114746
1762435484223902,-67.317078,0.304878,5.975610,0.976074,0.173340,-0.114746
1762435484234027,-45.792683,9.939025,2.134146,0.977051,0.173340,-0.107422
1762435484244152,-8.231708,14.085366,-4.329268,0.979004,0.175293,-0.103027
1762435484254277,1.463415,16.951220,-6.585366,0.979492,0.174805,-0.101074
1762435484264402,6.280488,15.853659,-6.890244,0.979004,0.175293,-0.102539
1762435484274528,-14.512196,10.121951,-3.963415,0.979004,0.175293,-0.103516
1762435484284651,-32.743904,-8.414635,-0.243902,0.977539,0.175781,-0.103516
1762435484294776,-32.378048,-14.146341,2.439024,0.976074,0.174805,-0.101074
1762435484304901,-28.536587,-16.585365,3.536585,0.973633,0.174805,-0.098633
1762435484315026,-14.695123,-0.304878,3.048780,0.973145,0.175781,-0.096680
1762435484325150,-13.353659,2.621951,4.085366,0.973633,0.176270,-0.092773
1762435484335275,5.121951,7.621952,2.073171,0.973145,0.176758,-0.090820
1762435484345401,0.121951,-1.951220,4.207317,0.974609,0.177246,-0.090820
1762435484355525,6.463415,-14.512196,5.243903,0.974121,0.177246,-0.090332
1762435484365650,-7.134147,-18.780489,7.378049,0.973633,0.176758,-0.091797
1762435484375775,22.256098,-5.670732,2.804878,0.973145,0.176270,-0.097168
1762435484385900,-45.609756,-11.280488,13.231708,0.974121,0.176270,-0.094727
1762435484396024,-9.390244,-22.073172,7.560976,0.976562,0.175781,-0.087402
1762435484406149,21.036587,-21.280489,2.195122,0.975586,0.176758,-0.090820
1762435484416275,-27.439026,-27.500000,8.170732,0.977051,0.177246,-0.092285
1762435484426399,120.060982,12.926829,-18.963415,0.974121,0.174805,-0.100098
1762435484436524,-89.634148,-24.695122,11.219513,0.973633,0.175781,-0.104492
1762435484446648,-0.792683,-30.060976,-1.707317,0.973145,0.174316,-0.104004
1762435484456773,-1.402439,-31.036587,0.609756,0.974609,0.175781,-0.109863
1762435484466898,-95.000000,-55.365856,16.890244,0.976074,0.170898,-0.103027
1762435484477023,-57.195122,-27.195122,11.951220,0.975098,0.174805,-0.102051
1762435484487148,-31.585367,-26.585367,5.182927,0.975098,0.173828,-0.097656
1762435484497273,-11.890244,4.695122,3.292683,0.978027,0.175293,-0.099121
1762435484507398,-12.560976,-2.073171,4.451220,0.979492,0.174805,-0.093262
1762435484517522,39.024391,-19.024391,-1.829268,0.980957,0.174805,-0.099609
1762435484527647,-60.304878,-27.743902,16.890244,0.980469,0.174805,-0.104980
1762435484537772,-35.609756,-35.121952,11.829268,0.980957,0.173828,-0.104980
1762435484547897,-10.304878,-4.146341,7.621952,0.981934,0.173340,-0.103027
1762435484558021,41.707317,-3.475610,0.365854,0.981445,0.172852,-0.105957
1762435484568146,-19.268293,3.231707,7.865854,0.980469,0.172852,-0.109863
1762435484578271,-17.134148,-8.841464,9.451220,0.986328,0.172363,-0.107422
1762435484588396,43.292683,6.768293,-0.792683,0.988281,0.171875,-0.113770
1762435484598521,-8.658537,-4.085366,10.000000,0.989746,0.170898,-0.121582
1762435484608646,-78.475609,-24.085367,22.195122,0.988770,0.170410,-0.126953
1762435484618770,-5.304878,0.304878,6.890244,0.989258,0.170898,-0.126465
1762435484628895,39.756100,19.634148,-2.621951,0.992676,0.168945,-0.130859
1762435484639020,-41.707317,43.719513,10.121951,0.996582,0.167480,-0.130371
1762435484649145,34.512196,46.097561,-1.707317,0.999512,0.167969,-0.129395
1762435484659269,56.890244,69.573174,-8.902439,0.999023,0.169434,-0.141602
1762435484669394,132.195129,82.865852,-30.975611,1.001953,0.161621,-0.155762
1762435484679519,32.195122,81.402443,-19.512196,1.000488,0.159180,-0.172363
1762435484689644,-9.512196,52.682930,-20.487804,0.999023,0.166504,-0.183105
1762435484699769,151.524399,55.853661,-51.768295,1.003418,0.169922,-0.197266
1762435484709894,183.902451,88.109756,-61.097561,1.008301,0.165039,-0.204590
1762435484720019,158.048782,50.487804,-57.621952,1.007324,0.134277,-0.205566
1762435484730143,25.243902,34.939026,-36.158539,1.008789,0.144531,-0.212891
1762435484740268,74.451218,50.670734,-41.951221,1.013184,0.152344,-0.219238
1762435484750393,236.402451,46.768295,-61.951221,1.020996,0.119141,-0.211426
1762435484760518,59.634148,46.951221,-29.390245,1.012207,0.125488,-0.219238
1762435484770643,48.963417,34.268295,-20.060976,1.012207,0.125977,-0.221680
1762435484780768,-150.609756,12.439025,31.951220,1.005859,0.134766,-0.214355
1762435484790892,126.646347,42.621952,-36.097561,0.996582,0.159180,-0.197266
1762435484801017,144.878052,52.743904,-24.939026,0.987793,0.160645,-0.193848
1762435484811142,137.439026,54.512196,-38.292683,0.983887,0.165039,-0.181641
1762435484821267,221.097565,89.756104,-45.000000,0.984863,0.159180,-0.172363
1762435484831392,79.024391,72.073174,-16.829269,0.989258,0.145508,-0.151855
1762435484841516,16.951220,50.853661,12.195122,0.992676,0.137207,-0.134277
1762435484851641,-185.487808,37.073174,33.780487,0.974121,0.183105,-0.118164
1762435484861766,-857.682922,29.329269,75.975609,0.981445,0.191406,0.042969
1762435484871891,1461.341553,178.414642,-400.304901,0.981934,0.133789,-0.101562
1762435484882016,24.268293,158.292694,26.768293,0.942383,0.106934,-0.207031
1762435484892140,-630.121948,-41.646343,39.817074,0.920898,0.128418,-0.289062
1762435484902265,-648.841492,-249.512207,14.085366,0.984375,0.106445,-0.229980
1762435484912390,-270.000000,-119.329269,-42.926830,1.031250,0.163574,-0.117188
1762435484922515,227.682938,-120.426834,-83.048782,1.048340,0.159668,-0.104492
1762435484932640,37.500000,-151.646347,-62.134148,1.025879,0.158203,-0.141602
1762435484942764,-12.134147,-106.402443,-75.426834,0.959961,0.182617,-0.139160
1762435484952889,82.682930,-163.536591,-3.231707,0.943848,0.168945,-0.079102
1762435484963014,422.865875,-46.463417,-84.695122,0.947754,0.211426,-0.096680
1762435484973140,286.158539,-2.012195,-86.646347,0.934570,0.219727,-0.069336
1762435484983264,285.060974,-13.902439,-67.682930,0.926270,0.239258,-0.082520
1762435484993389,482.378052,61.219513,-116.341469,0.910156,0.251953,-0.055664
1762435485003513,552.012207,-41.158539,-76.402443,0.911133,0.254883,-0.072266
1762435485013638,476.524414,34.573170,-103.414635,0.911133,0.246094,-0.090332
1762435485023763,208.658539,-149.573181,5.487805,0.914062,0.231445,-0.127930
1762435485033888,41.341465,-82.743904,26.463415,0.919922,0.223145,-0.145508
1762435485044014,179.207321,-224.390244,39.207317,0.919434,0.225098,-0.158691
1762435485054137,97.500000,-165.914642,66.097565,0.914551,0.239258,-0.173828
1762435485064262,-18.719513,-195.548782,76.768295,0.912598,0.265137,-0.168945
1762435485074387,121.158539,-163.414642,-2.804878,0.901367,0.293457,-0.176758
1762435485084512,86.768295,-143.536591,19.878050,0.882812,0.291992,-0.181641
1762435485094637,118.597565,-149.451218,9.390244,0.871094,0.305176,-0.194336
1762435485104761,215.243912,-203.841461,-85.853661,0.869141,0.346680,-0.192871
1762435485114887,207.926834,-185.182938,-171.768295,0.857422,0.356934,-0.217773
1762435485125011,280.731720,-239.817078,-215.304886,0.860840,0.364746,-0.235352
1762435485135139,170.304886,-288.963409,-187.500000,0.853027,0.367188,-0.266113
1762435485145261,172.195129,-315.670746,-160.121948,0.856934,0.362305,-0.291504
1762435485155386,-34.939026,-246.036591,-118.780487,0.844727,0.363281,-0.341309
1762435485165510,-136.829269,-138.780487,-67.439026,0.828613,0.355957,-0.371582
1762435485175635,-56.524391,-57.256100,-30.487806,0.812012,0.353027,-0.397461
1762435485185761,18.597561,-12.256098,-0.670732,0.797852,0.347168,-0.423340
1762435485195885,26.768293,-16.951220,1.524390,0.783203,0.343262,-0.444824
1762435485206012,23.475611,9.878049,3.841464,0.770996,0.338379,-0.466797
1762435485216134,-0.365854,8.170732,-3.292683,0.759277,0.333984,-0.485352
1762435485226260,51.036587,-1.097561,-27.073172,0.750000,0.329590,-0.502930
1762435485236384,15.365854,22.012196,-49.878052,0.737793,0.325684,-0.520996
1762435485246509,-1.097561,37.560978,-12.378049,0.729492,0.321777,-0.537598
1762435485256634,-14.817074,48.536587,-111.890244,0.722168,0.318848,-0.551270
1762435485266759,-27.865854,55.060978,-95.304878,0.712402,0.318359,-0.563477
1762435485276885,-10.121951,33.536587,-7.865854,0.704590,0.317383,-0.573730
1762435485287008,-5.975610,39.085365,-10.365854,0.699219,0.315430,-0.584473
1762435485297133,29.756098,53.414635,-70.670731,0.699707,0.314453,-0.591309
1762435485307258,21.341463,34.756100,-91.707321,0.688477,0.317871,-0.600098
1762435485317383,-18.170732,29.085367,-50.792683,0.683105,0.314453,-0.606445
1762435485327508,-0.914634,17.560976,-53.963417,0.678711,0.315918,-0.612305
1762435485337632,-0.487805,17.378050,-49.634148,0.674805,0.316406,-0.618164
1762435485347759,-3.048780,31.097561,-67.865852,0.670410,0.319336,-0.625000
1762435485357882,-42.378048,51.219513,-37.987804,0.666016,0.325195,-0.631836
1762435485368007,-60.487808,65.609756,13.231708,0.661621,0.328125,-0.634766
1762435485378132,-57.500000,65.365852,-16.036585,0.660156,0.331055,-0.636719
1762435485388256,-38.536587,84.573174,4.512195,0.658691,0.333984,-0.638672
1762435485398381,3.109756,97.987808,-21.768293,0.657715,0.332031,-0.636719
1762435485408506,16.402439,77.134148,-54.390244,0.656250,0.338867,-0.636719
1762435485418632,58.658539,76.402443,-44.024391,0.650391,0.341309,-0.634766
1762435485428756,54.634148,43.109756,-61.890244,0.646973,0.345703,-0.631348
1762435485438880,71.890244,27.317074,-74.329269,0.661621,0.348633,-0.630859
1762435485449005,-9.268293,8.658537,-40.548782,0.664062,0.355469,-0.626953
1762435485459130,-62.926830,-1.402439,-77.804878,0.662598,0.361328,-0.625488
1762435485469255,-76.524391,-49.695122,-31.341465,0.658691,0.365234,-0.627930
1762435485479380,-231.768295,-32.987804,83.841469,0.649414,0.392090,-0.631348
1762435485489506,-397.012207,37.073174,172.195129,0.655273,0.382324,-0.620605
1762435485499629,-10.304878,-25.243902,-56.829269,0.669922,0.375977,-0.608887
1762435485509755,87.621956,-39.451221,-125.975616,0.659668,0.381348,-0.615723
1762435485519879,-57.439026,-42.621952,-5.060976,0.659180,0.386719,-0.614258
1762435485530004,-3.109756,-19.329269,-15.060976,0.662109,0.393066,-0.609863
1762435485540129,60.487808,6.341464,-55.365856,0.656738,0.399414,-0.609375
1762435485550253,6.585366,-7.134147,-8.780488,0.658691,0.405273,-0.608887
1762435485560379,-10.000000,-24.024391,-19.695122,0.653320,0.410156,-0.604980
1762435485570503,-0.243902,-25.000000,-4.756098,0.650879,0.416504,-0.606445
1762435485580628,22.926830,-11.097561,-0.060976,0.649414,0.420898,-0.604980
1762435485590753,91.951225,7.926829,-40.487804,0.650391,0.424316,-0.601562
1762435485600878,104.695122,-0.243902,-31.524391,0.647949,0.427734,-0.602539
1762435485611002,110.365860,0.914634,-32.682926,0.645020,0.430664,-0.604004
1762435485621127,82.682930,3.414634,-18.597561,0.641113,0.433105,-0.607422
1762435485631253,24.573172,-5.487805,4.695122,0.639160,0.434570,-0.608398
1762435485641377,24.451220,-34.329269,2.865854,0.636230,0.435059,-0.606934
1762435485651502,73.719513,-67.256096,-5.121951,0.633789,0.435059,-0.605957
1762435485661626,95.426834,-86.524391,-16.951220,0.631348,0.436035,-0.610840
1762435485671751,62.682930,-83.109756,-14.085366,0.627930,0.437500,-0.615234
1762435485681876,92.682930,-55.853661,2.743902,0.623535,0.437988,-0.621582
1762435485692001,59.024391,-26.036587,20.670732,0.618164,0.444824,-0.631348
1762435485702126,-15.304878,-6.341464,13.536586,0.614746,0.439453,-0.633789
1762435485712251,3.048780,4.634147,26.524391,0.610352,0.438965,-0.639648
1762435485722375,12.865854,6.646342,76.158539,0.605469,0.439453,-0.642578
1762435485732500,-18.719513,-3.475610,72.317078,0.603027,0.439453,-0.645996
1762435485742625,39.024391,0.000000,-15.121952,0.602051,0.438965,-0.647461
1762435485752750,40.914635,42.378048,-2.804878,0.601074,0.436523,-0.651367
1762435485762875,32.073170,30.426830,24.207317,0.596191,0.434570,-0.655273
1762435485773000,18.780489,5.731708,11.341464,0.600586,0.431152,-0.652344
1762435485783124,-55.426830,-42.621952,58.719513,0.594238,0.419434,-0.654297
1762435485793249,-11.585366,-62.621952,76.768295,0.601074,0.416992,-0.658203
1762435485803374,26.036587,-41.463417,35.853661,0.595703,0.411133,-0.661133
1762435485813499,154.451218,-34.390244,12.256098,0.599609,0.412109,-0.670898
1762435485823623,-25.365854,3.536585,6.646342,0.591309,0.411133,-0.674316
1762435485833748,73.231712,-0.548781,-43.597561,0.599609,0.407227,-0.679199
1762435485843873,2.926829,24.939026,-7.378049,0.598145,0.409180,-0.683105
1762435485853998,140.792679,-3.048780,-37.500000,0.596680,0.411133,-0.685059
1762435485864123,91.341469,5.365854,12.560976,0.590332,0.406738,-0.688477
1762435485874248,75.365852,1.341463,39.512196,0.592285,0.391113,-0.691406
1762435485884372,128.414642,-85.548782,43.536587,0.583984,0.403809,-0.689941
1762435485894497,72.926834,-13.780488,118.231712,0.576172,0.416504,-0.692383
1762435485904622,89.756104,-18.841463,4.390244,0.571777,0.414551,-0.698730
1762435485914747,34.817074,-19.573172,62.317074,0.569336,0.403320,-0.701660
1762435485924872,9.024390,-2.621951,50.853661,0.571777,0.399902,-0.708008
1762435485934996,136.890244,-39.817074,-21.524391,0.568848,0.388184,-0.714844
1762435485945121,50.914635,-6.585366,2.256098,0.561523,0.374512,-0.719238
1762435485955246,186.890244,-19.207317,-85.792686,0.557129,0.358398,-0.725098
1762435485965371,122.012199,45.792683,-0.365854,0.566895,0.352051,-0.737305
1762435485975495,-66.280487,115.487808,68.231712,0.568359,0.334473,-0.736328
1762435485985620,-16.219513,77.560974,59.695122,0.562988,0.322754,-0.740234
1762435485995745,-182.804886,167.500000,143.048782,0.561523,0.312988,-0.742676
1762435486005870,-53.170734,91.524391,52.865856,0.577637,0.301270,-0.738281
1762435486015995,-94.695122,155.365860,-16.524391,0.584961,0.298340,-0.733398
1762435486026120,-21.524391,133.048782,-62.987808,0.595215,0.284180,-0.729004
1762435486036244,150.304886,157.865860,-112.012199,0.601074,0.284668,-0.752930
1762435486046369,-549.817078,180.426834,150.792694,0.602051,0.218750,-0.741699
1762435486056494,-197.987808,315.304871,92.621956,0.611328,0.275879,-0.738281
1762435486066619,-402.865875,273.048798,136.219513,0.614746,0.234375,-0.723633
1762435486076744,-562.134155,133.414642,127.134148,0.613281,0.273926,-0.726074
1762435486086868,-717.621948,-157.987808,273.414642,0.630371,0.228027,-0.708496
1762435486096993,-783.292725,-328.902435,284.390259,0.650391,0.293945,-0.693848
1762435486107118,-163.109756,124.268295,108.597565,0.667969,0.301270,-0.650391
1762435486117243,-400.914642,53.536587,134.817078,0.675293,0.299316,-0.624512
1762435486127368,-7.804878,135.548782,42.926830,0.676270,0.323730,-0.604492
1762435486137493,-174.695129,177.682938,4.878049,0.691406,0.329590,-0.561523
1762435486147617,206.951218,255.060974,-97.743904,0.705078,0.366211,-0.531250
1762435486157742,241.402451,211.158539,-160.609756,0.714355,0.366211,-0.489258
1762435486167867,428.109772,149.146347,-164.268295,0.724121,0.345703,-0.513672
1762435486177992,93.475609,194.024399,-104.329269,0.725098,0.312988,-0.506348
1762435486188117,-60.487808,86.768295,-16.951220,0.734863,0.278809,-0.540039
1762435486198241,-391.219513,125.365860,46.097561,0.748047,0.246094,-0.530273
1762435486208366,-636.585388,95.731712,69.878052,0.762695,0.271484,-0.522461
1762435486218491,-451.463440,-4.573171,51.158539,0.790039,0.279785,-0.468750
1762435486228616,-287.317078,-25.426830,27.378050,0.800781,0.307617,-0.451660
1762435486238741,-342.804901,-36.402439,27.926830,0.814453,0.297363,-0.429199
1762435486248865,-315.304871,9.146341,45.731709,0.826660,0.302246,-0.426270
1762435486258990,-259.695129,154.146347,49.268295,0.835449,0.294434,-0.387207
1762435486269115,-108.231712,186.585373,27.743902,0.842773,0.320801,-0.341309
1762435486279240,-28.536587,61.341465,-3.536585,0.846191,0.341309,-0.300293
1762435486289365,-40.670734,1.890244,-10.060976,0.852051,0.334473,-0.301270
1762435486299489,49.756100,83.597565,10.182927,0.853516,0.314941,-0.319824
1762435486309614,-106.768295,35.853661,45.731709,0.860352,0.311035,-0.318848
1762435486319739,-103.841469,-32.987804,55.182930,0.869629,0.316406,-0.293945
1762435486329864,-120.426834,-181.951218,60.243904,0.878418,0.319336,-0.278809
1762435486339989,-67.560974,-182.560974,73.231712,0.886230,0.307617,-0.278320
1762435486350113,-99.756104,-128.292679,85.182930,0.893066,0.306152,-0.273926
1762435486360238,-56.524391,-111.585365,83.719513,0.898438,0.312500,-0.250977
1762435486370363,16.829269,-112.682930,61.341465,0.903320,0.326172,-0.217773
1762435486380488,112.012199,-154.817078,35.426830,0.905273,0.324219,-0.203125
1762435486390613,257.073181,-82.317078,13.475610,0.900879,0.309570,-0.210938
1762435486400737,232.256104,-45.060978,16.158537,0.895996,0.312012,-0.229492
1762435486410862,73.658539,-88.536591,32.804878,0.899414,0.302734,-0.227051
1762435486420987,106.524391,-92.256104,31.768293,0.901367,0.303711,-0.236816
1762435486431112,-61.158539,-153.963425,60.975613,0.904297,0.296387,-0.247070
1762435486441237,-109.085365,-113.048782,69.451218,0.911133,0.294434,-0.247070
1762435486451361,-89.573174,-105.426834,59.878052,0.915527,0.295410,-0.244141
1762435486461486,-24.573172,-79.024391,47.134148,0.919434,0.296387,-0.247070
1762435486471611,-130.182922,-83.414635,44.146343,0.919922,0.293457,-0.247070
1762435486481736,-38.170734,-27.073172,24.146341,0.921875,0.289551,-0.238770
1762435486491861,85.670731,-0.243902,-2.378049,0.919434,0.292480,-0.245117
1762435486501985,-5.609756,-29.207317,-2.317073,0.921387,0.286621,-0.254883
1762435486512110,-60.609756,-22.804878,9.268293,0.920410,0.281738,-0.265137
1762435486522235,-118.536591,-65.243904,24.756098,0.917480,0.274414,-0.277832
1762435486532360,-143.170731,-61.219513,33.536587,0.912598,0.266113,-0.295410
1762435486542485,-178.231705,-93.414635,42.439026,0.911621,0.264648,-0.301758
1762435486552610,-220.609756,-133.841461,51.158539,0.909180,0.264160,-0.306152
1762435486562734,-251.036591,-121.158539,47.500000,0.908203,0.264648,-0.308594
1762435486572859,-243.048782,-96.646347,42.317074,0.907227,0.266113,-0.305176
1762435486582984,-150.670731,-54.390244,22.073172,0.907227,0.267578,-0.299805
1762435486593109,-58.170734,-18.231709,-7.439024,0.907227,0.270996,-0.301270
1762435486603234,-114.756104,-61.280491,-3.475610,0.903320,0.273438,-0.314941
1762435486613358,-243.536591,-104.451225,17.378050,0.894531,0.275391,-0.321289
1762435486623483,-174.329269,-89.695122,0.487805,0.881348,0.275879,-0.320801
1762435486633608,-102.134148,-64.512199,-21.219513,0.874512,0.279297,-0.325684
1762435486643734,-118.109756,8.109756,-13.658537,0.881348,0.284668,-0.309570
1762435486653858,49.024391,62.317074,-23.231709,0.898438,0.292480,-0.302246
1762435486663983,-90.000000,-17.195122,10.731708,0.891602,0.296387,-0.324707
1762435486674108,-163.353668,-118.719513,44.268295,0.892090,0.299805,-0.325684
1762435486684232,-111.219513,-124.390244,45.304878,0.891602,0.303711,-0.326660
1762435486694357,-42.500000,-60.731709,25.975611,0.890625,0.308105,-0.312012
1762435486704482,103.963417,14.024390,-11.463415,0.886719,0.312012,-0.312988
1762435486714607,131.158539,61.890244,-34.695122,0.883301,0.313965,-0.313965
1762435486724732,227.865860,47.987804,-51.158539,0.880859,0.316406,-0.313477
1762435486734856,190.487808,18.109756,-47.134148,0.877441,0.318359,-0.319336
1762435486744981,212.378052,33.719513,-56.829269,0.877441,0.319336,-0.318848
1762435486755111,218.658539,79.329269,-58.353661,0.878418,0.320801,-0.317871
1762435486765230,259.634155,123.597565,-62.012196,0.878418,0.325195,-0.315430
1762435486775356,177.743912,89.695122,-55.000000,0.881836,0.326660,-0.312500
1762435486785481,260.792694,80.670731,-57.621952,0.878906,0.316895,-0.328125
1762435486795605,-17.865854,-16.646341,5.000000,0.869629,0.311523,-0.377930
1762435486805730,-206.829269,-61.524391,39.695122,0.872559,0.309082,-0.359375
1762435486815855,69.512199,7.500000,-5.304878,0.872559,0.313965,-0.352051
1762435486825980,-27.743902,-9.634147,14.939025,0.869629,0.310547,-0.368164
1762435486836105,-129.756104,-28.353659,36.097561,0.870117,0.309570,-0.369141
1762435486846229,-57.682930,-27.195122,22.987806,0.870605,0.311523,-0.365234
1762435486856354,-35.975609,-4.146341,21.097561,0.870117,0.310547,-0.364746
1762435486866479,-27.865854,6.951220,23.475611,0.868164,0.309570,-0.367188
1762435486876604,-45.487804,3.658537,25.670732,0.868164,0.311035,-0.368652
1762435486886729,-69.329269,-9.939025,28.841465,0.867188,0.310547,-0.370605
1762435486896853,-32.073170,-0.060976,24.573172,0.870117,0.311523,-0.368164
1762435486906978,-71.951218,-10.060976,30.975611,0.867676,0.311035,-0.371094
1762435486917103,-56.036587,0.000000,26.341465,0.869629,0.311035,-0.366211
1762435486927228,-62.195122,-5.243903,25.365854,0.869141,0.312012,-0.372070
1762435486937353,-124.146347,-31.463415,35.365856,0.871094,0.311523,-0.372559
1762435486947478,-94.695122,-30.182928,29.207317,0.871094,0.312012,-0.373535
1762435486957602,-157.743912,-40.731709,45.670734,0.871582,0.312500,-0.375000
1762435486967727,-127.804878,-40.365856,42.500000,0.873047,0.312988,-0.369141
1762435486977852,-101.280487,-35.182926,39.085365,0.871094,0.312988,-0.371094
1762435486987977,-82.682930,-31.829269,30.365854,0.871582,0.313477,-0.364258
1762435486998101,-8.292683,0.000000,12.682927,0.872070,0.314453,-0.356445
1762435487008226,72.012199,29.695122,-7.378049,0.873535,0.315430,-0.347168
1762435487018351,126.768295,40.121952,-21.768293,0.871582,0.315430,-0.352051
1762435487028476,40.182926,15.914635,-10.792684,0.870605,0.314453,-0.362793
1762435487038601,45.914635,16.768293,-10.853659,0.875488,0.314941,-0.353027
1762435487048726,127.317078,7.134147,-29.329269,0.877441,0.315430,-0.354980
1762435487058850,117.682930,-7.378049,-27.256098,0.875488,0.313965,-0.357910
1762435487068975,45.792683,4.756098,-8.780488,0.872070,0.311523,-0.365234
1762435487079100,65.243904,4.146341,-16.524391,0.872070,0.318848,-0.369141
1762435487089225,170.670731,-17.134148,-47.804878,0.873535,0.318359,-0.372070
1762435487099350,303.841461,-87.926834,-63.597561,0.880859,0.308594,-0.362793
1762435487109474,145.548782,168.414642,-10.853659,0.870605,0.283691,-0.320312
1762435487119599,360.914642,199.329269,-67.926834,0.877441,0.319336,-0.320312
1762435487129724,529.207336,277.926849,-145.365860,0.887695,0.321777,-0.301270
1762435487139849,449.817078,155.731705,-171.097565,0.901367,0.329102,-0.312500
1762435487149974,413.048798,22.560976,-164.878052,0.890625,0.302246,-0.332031
1762435487160099,-5.243903,-86.097565,-60.426830,0.887207,0.278320,-0.380371
1762435487170223,-223.292694,8.353659,45.792683,0.874512,0.247559,-0.399414
1762435487180349,-264.146362,67.987808,83.475609,0.875000,0.251953,-0.405762
1762435487190473,-242.926834,42.987804,56.463417,0.882812,0.259277,-0.371094
1762435487200598,-34.085365,14.634147,-14.085366,0.886719,0.271973,-0.370117
1762435487210722,8.658537,-2.378049,-16.097561,0.888184,0.263184,-0.367188
1762435487220847,-56.890244,-52.012196,-4.451220,0.886719,0.265137,-0.386230
1762435487230972,-317.987823,-73.414635,52.560978,0.885742,0.255859,-0.387207
1762435487241097,-218.475616,0.182927,23.353659,0.888184,0.266113,-0.375000
1762435487251222,-239.695129,7.073171,17.621952,0.888672,0.268066,-0.358398
1762435487261346,-57.926830,95.121956,-25.121952,0.893555,0.273926,-0.337402
1762435487271471,20.731709,114.085365,-53.658539,0.894043,0.283203,-0.331055
1762435487281597,59.451221,119.817078,-58.414635,0.895996,0.286621,-0.320312
1762435487291721,74.451218,54.329269,-55.000000,0.897461,0.292969,-0.323730
1762435487301846,-110.243904,-66.768295,-8.170732,0.891602,0.287109,-0.346191
1762435487311971,-162.439026,-78.780487,32.500000,0.893066,0.280762,-0.342285
1762435487322095,-99.329269,-114.817078,32.500000,0.893555,0.290527,-0.339844
1762435487332221,-115.365860,-138.658539,37.500000,0.894043,0.293457,-0.339355
1762435487342345,-91.280487,-3.475610,28.048780,0.891113,0.295898,-0.320801
1762435487352470,6.341464,43.170734,-5.792683,0.898438,0.306152,-0.286133
1762435487362595,290.426849,53.780491,-58.475613,0.901367,0.309570,-0.292480
1762435487372719,-5.792683,-9.817074,-3.719512,0.891602,0.311523,-0.318359
1762435487382844,-164.756104,-20.609756,27.317074,0.897949,0.309082,-0.296387
1762435487392969,163.902435,0.243902,-22.134148,0.896484,0.315918,-0.295410
1762435487403095,2.195122,-8.231708,2.012195,0.891602,0.317383,-0.304199
1762435487413219,-140.914642,29.268293,18.902439,0.890137,0.317871,-0.293457
1762435487423343,70.853661,72.134148,-19.695122,0.893066,0.324219,-0.276367
1762435487433469,23.414635,40.731709,-22.500000,0.895508,0.333496,-0.281250
1762435487443593,-101.707321,5.914634,-4.085366,0.894043,0.330078,-0.287109
1762435487453719,-77.743904,47.804878,-1.524390,0.894043,0.329102,-0.285156
1762435487463843,39.390244,67.317078,-11.524390,0.896973,0.333496,-0.271484
1762435487473968,-1.707317,32.195122,-17.317074,0.898438,0.337891,-0.262695
1762435487484093,89.939026,150.548782,-39.695122,0.898926,0.342285,-0.245117
1762435487494217,153.963425,136.890244,-62.560978,0.902832,0.353516,-0.224609
1762435487504342,401.585388,250.182938,-92.439026,0.907227,0.346191,-0.197754
1762435487514468,508.353668,213.902451,-109.878052,0.908203,0.357910,-0.207520
1762435487524592,328.231720,100.304878,-81.280487,0.905273,0.336914,-0.236328
1762435487534717,131.097565,44.207317,-22.073172,0.901855,0.326172,-0.267090
1762435487544842,-166.341461,-99.390244,31.402439,0.901367,0.319824,-0.276367
1762435487554966,-41.951221,-70.609756,43.963417,0.900391,0.313965,-0.269531
1762435487565092,-23.048780,-118.109756,46.890244,0.901367,0.329590,-0.272949
1762435487575216,-155.182938,-145.304886,61.219513,0.899902,0.315918,-0.270996
1762435487585341,-78.780487,-36.097561,55.365856,0.900391,0.325195,-0.259766
1762435487595465,8.597561,-46.402439,24.634148,0.905762,0.341309,-0.233887
1762435487605591,240.487808,57.195122,-25.548780,0.907715,0.338867,-0.212891
1762435487615715,388.841461,134.451218,-55.060978,0.907715,0.345215,-0.216797
1762435487625840,258.841461,74.329269,-44.268295,0.908203,0.338379,-0.220215
1762435487635965,319.878052,95.731712,-40.121952,0.908203,0.334473,-0.228516
1762435487646091,114.634148,-13.902439,-12.134147,0.905273,0.333496,-0.257812
1762435487656215,-48.109756,-72.621956,22.012196,0.905273,0.323730,-0.257812
1762435487666339,-47.804878,-80.243904,26.341465,0.904785,0.325195,-0.265625
1762435487676464,-98.475609,-74.878052,38.170734,0.903320,0.314453,-0.267090
1762435487686589,-76.036591,-17.073172,37.012196,0.904297,0.319336,-0.268066
1762435487696714,-52.743904,5.243903,25.609756,0.905762,0.320801,-0.259277
1762435487706839,96.097565,76.158539,-6.829268,0.908691,0.325684,-0.243652
1762435487716964,201.707321,114.512199,-37.804878,0.909668,0.330078,-0.240234
1762435487727088,149.878052,81.768295,-46.097561,0.910156,0.333496,-0.243164
1762435487737213,170.609756,87.743904,-48.658539,0.910645,0.327637,-0.239746
1762435487747338,220.853668,99.146347,-47.987804,0.910645,0.325195,-0.244141
1762435487757463,195.243912,68.475609,-38.170734,0.911133,0.317383,-0.249023
1762435487767587,155.792694,40.060978,-17.926830,0.911133,0.309570,-0.258789
1762435487777712,93.292686,-2.073171,-2.317073,0.911133,0.307617,-0.262695
1762435487787837,83.719513,-30.914635,1.890244,0.912109,0.306152,-0.263672
1762435487797962,95.304878,-33.475609,1.402439,0.912598,0.303223,-0.262207
1762435487808087,153.353668,-15.609756,-2.682927,0.913574,0.299316,-0.262695
1762435487818211,137.378052,0.426829,-2.987805,0.913086,0.296875,-0.266113
1762435487828336,110.182930,2.195122,-5.060976,0.912109,0.295898,-0.268066
1762435487838461,150.914642,23.170732,-12.865854,0.914062,0.291504,-0.264160
1762435487848586,239.451218,57.743904,-23.536587,0.914062,0.288574,-0.265137
1762435487858711,207.500000,42.378048,-20.487804,0.915039,0.283691,-0.274414
1762435487868836,85.304878,4.756098,-4.390244,0.914551,0.280273,-0.286621
1762435487878961,22.743902,-51.585365,8.170732,0.915039,0.271484,-0.291504
1762435487889085,1.707317,-82.500000,22.073172,0.915039,0.262695,-0.298340
1762435487899210,-5.365854,-83.109756,31.707317,0.914062,0.262695,-0.303711
1762435487909335,-87.865852,-74.817078,35.000000,0.913086,0.257812,-0.308105
1762435487919459,-130.670731,-56.158539,46.097561,0.908691,0.250977,-0.313477
1762435487929584,-221.280487,-63.597561,59.878052,0.908203,0.245605,-0.317383
1762435487939709,-191.219513,-19.634148,58.536587,0.907715,0.245117,-0.318848
1762435487949834,-163.902435,-7.439024,47.621952,0.908691,0.249512,-0.319824
1762435487959959,-200.548782,-16.341463,36.463417,0.908203,0.253418,-0.320801
1762435487970083,-243.963425,-20.914635,28.902439,0.907227,0.252441,-0.322754
1762435487980208,-226.585373,-9.817074,25.304878,0.907715,0.252930,-0.321777
1762435487990333,-202.073181,5.853659,20.487804,0.907227,0.253418,-0.320312
1762435488000458,-210.243912,7.378049,18.658537,0.905762,0.254395,-0.322754
1762435488010583,-267.195129,-26.463415,29.573172,0.904785,0.256836,-0.327637
1762435488020708,-335.000000,-52.134148,40.853661,0.904297,0.257324,-0.327148
1762435488030832,-318.780487,-54.573174,42.804878,0.904785,0.259277,-0.320312
1762435488040957,-247.682938,-43.231709,36.585365,0.905273,0.262207,-0.315430
1762435488051082,-267.012207,-41.036587,37.682926,0.904297,0.266113,-0.317383
1762435488061207,-328.658539,-25.609756,43.414635,0.905273,0.269043,-0.310059
1762435488071332,-224.329269,2.256098,25.426830,0.907227,0.275391,-0.297363
1762435488081457,-172.134155,13.902439,15.304878,0.907227,0.280273,-0.291992
1762435488091581,-139.817078,11.097561,11.097561,0.908203,0.284180,-0.284668
1762435488101706,-161.524399,-26.707317,16.524391,0.907227,0.290527,-0.287109
1762435488111831,-181.036591,-47.012196,22.743902,0.907227,0.292969,-0.281250
1762435488121956,-123.719513,-45.426830,17.134148,0.908691,0.297852,-0.271484
1762435488132081,-64.146339,-36.280487,11.341464,0.908691,0.301270,-0.262695
1762435488142205,25.000000,-25.609756,-0.914634,0.909180,0.305664,-0.257812
1762435488152330,-12.500000,-33.841465,3.902439,0.907715,0.309570,-0.259277
1762435488162456,-59.024391,-44.634148,13.048780,0.906738,0.312500,-0.256348
1762435488172580,12.378049,-21.951220,4.085366,0.907227,0.316406,-0.247559
1762435488182705,73.658539,3.170732,-8.963415,0.906738,0.318359,-0.242188
1762435488192829,82.134148,22.500000,-11.097561,0.905273,0.320801,-0.243652
1762435488202954,45.304878,35.121952,-6.463415,0.905273,0.323242,-0.241699
1762435488213079,41.585365,42.012196,-8.719512,0.904785,0.326172,-0.241211
1762435488223204,29.268293,39.512196,-7.317073,0.905762,0.328613,-0.239746
1762435488233329,37.500000,29.939026,-8.719512,0.906250,0.331543,-0.237305
1762435488243454,28.780489,16.707317,-9.939025,0.906738,0.334473,-0.235352
1762435488253578,17.560976,8.353659,-8.048780,0.906250,0.333984,-0.236328
1762435488263703,10.853659,21.402439,-2.682927,0.905273,0.334473,-0.236816
1762435488273828,48.292683,31.463415,-8.536586,0.906250,0.336914,-0.228027
1762435488283957,102.439026,32.621952,-17.743902,0.907227,0.340820,-0.223145
1762435488294078,111.402443,19.817074,-20.670732,0.906738,0.341309,-0.222656
1762435488304202,123.780487,24.878050,-19.756098,0.906250,0.337891,-0.228027
1762435488314327,69.573174,14.146341,-6.036585,0.905273,0.338379,-0.231445
1762435488324452,92.926834,-2.804878,-8.353659,0.906250,0.338379,-0.229004
1762435488334578,123.048782,-16.524391,-9.512196,0.906250,0.339355,-0.231934
1762435488344702,65.243904,-50.548782,3.475610,0.904785,0.336426,-0.239746
1762435488354827,52.073174,-47.134148,11.768293,0.902344,0.329590,-0.244629
1762435488364952,34.817074,-35.853661,23.170732,0.901367,0.329102,-0.252441
1762435488375077,-29.573172,-62.621952,33.780487,0.901855,0.330566,-0.254883
1762435488385201,36.158539,-50.000000,25.365854,0.901367,0.330078,-0.258789
1762435488395326,-14.451220,-78.292686,30.365854,0.903320,0.323730,-0.259277
1762435488405451,-13.292684,-53.353661,36.097561,0.900879,0.318848,-0.268066
1762435488415575,-83.292686,-65.000000,42.804878,0.902832,0.324219,-0.271973
1762435488425700,-25.182928,-46.402439,31.280489,0.901855,0.324219,-0.273438
1762435488435825,-13.902439,-44.207317,26.524391,0.901855,0.329102,-0.275879
1762435488445950,17.804878,-44.024391,11.646341,0.902344,0.325684,-0.272461
1762435488456075,32.743904,-20.060976,10.609756,0.900391,0.322266,-0.274902
1762435488466199,20.975611,-9.878049,7.500000,0.900391,0.320801,-0.273438
1762435488476325,44.085365,18.353659,-2.621951,0.899902,0.320312,-0.275391
1762435488486449,72.560974,39.329269,-10.609756,0.898926,0.320312,-0.276367
1762435488496574,81.036591,48.658539,-17.439024,0.898926,0.318359,-0.278320
1762435488506699,104.085365,65.792686,-22.865854,0.899414,0.316895,-0.278809
1762435488516824,65.609756,42.073174,-21.951220,0.899414,0.318359,-0.285645
1762435488526948,79.573174,42.865856,-24.695122,0.899902,0.315430,-0.281738
1762435488537074,138.780487,51.280491,-38.536587,0.900879,0.318359,-0.282715
1762435488547198,111.951225,35.548782,-42.682926,0.901855,0.314453,-0.279297
1762435488557323,169.451218,69.024391,-52.378052,0.901855,0.311035,-0.280273
1762435488567448,142.195129,65.000000,-51.402439,0.900879,0.309082,-0.286133
1762435488577572,158.048782,74.756096,-49.756100,0.901367,0.304199,-0.289062
1762435488587697,144.207321,71.097565,-43.841465,0.901855,0.301270,-0.294922
1762435488597822,114.268295,46.768295,-33.475609,0.900879,0.295410,-0.299316
1762435488607947,78.475609,20.792683,-23.292683,0.901367,0.292480,-0.304199
1762435488618071,33.292683,0.365854,-11.219513,0.900879,0.286621,-0.311035
1762435488628196,-15.731708,-13.231708,4.939024,0.900879,0.285645,-0.311523
1762435488638321,7.560976,-11.585366,2.804878,0.900391,0.284668,-0.309570
1762435488648446,0.243902,-14.451220,2.987805,0.900391,0.283691,-0.312500
1762435488658571,-13.475610,-11.097561,6.890244,0.900879,0.282227,-0.310547
1762435488668696,-13.109756,-5.182927,3.292683,0.901855,0.281738,-0.313477
1762435488678821,-42.256100,-10.060976,6.829268,0.902344,0.281738,-0.313965
1762435488688945,-42.621952,-10.182927,2.926829,0.902344,0.281250,-0.315918
1762435488699070,-93.170731,-23.414635,9.939025,0.902344,0.280762,-0.319824
1762435488709195,-150.304886,-33.292683,18.780489,0.901855,0.280762,-0.321289
1762435488719320,-153.658539,-24.634148,21.036587,0.901855,0.281250,-0.317871
1762435488729444,-140.121948,-5.548780,16.890244,0.900879,0.282227,-0.316895
1762435488739569,-176.707321,6.097561,18.292683,0.900879,0.283203,-0.314453
1762435488749694,-162.378052,17.682928,12.682927,0.900879,0.286621,-0.310059
1762435488759819,-152.743912,20.731709,9.695122,0.900879,0.287598,-0.309082
1762435488769944,-187.500000,7.804878,11.829268,0.902344,0.292480,-0.304199
1762435488780069,-155.975616,2.378049,6.219512,0.902344,0.293945,-0.297852
1762435488790194,-148.536591,-2.500000,5.609756,0.902832,0.298828,-0.292969
1762435488800319,-129.207321,5.243903,4.939024,0.902832,0.299316,-0.288086
1762435488810443,-120.060982,21.890244,3.658537,0.903320,0.304688,-0.281250
1762435488820568,-35.609756,40.548782,-7.743903,0.903809,0.306152,-0.270996
1762435488830693,-27.256098,36.219513,-9.207317,0.905762,0.311523,-0.263672
1762435488840818,25.304878,30.060976,-14.390244,0.906250,0.313477,-0.259277
1762435488850942,30.304878,21.219513,-13.597561,0.906738,0.313477,-0.259766
1762435488861067,34.512196,16.524391,-6.646342,0.906738,0.314941,-0.258789
1762435488871192,10.792684,-16.097561,-2.865854,0.907227,0.317871,-0.256348
1762435488881317,58.292683,-20.243902,-4.817073,0.907227,0.319336,-0.250000
1762435488891442,57.012196,-29.695122,-2.804878,0.906738,0.321777,-0.251465
1762435488901566,53.902439,-26.707317,-0.609756,0.907227,0.323242,-0.245117
1762435488911691,89.207321,-14.024390,-6.036585,0.906738,0.324707,-0.243164
1762435488921817,98.109756,-8.414635,-5.914634,0.905762,0.323242,-0.243164
1762435488931941,79.756096,-3.658537,0.792683,0.904785,0.324219,-0.250488
1762435488942066,15.670732,-27.682928,11.219513,0.904785,0.321777,-0.251465
1762435488952191,-15.000000,-39.024391,16.280489,0.904785,0.328125,-0.252930
1762435488962316,-9.085366,-44.512196,12.743903,0.904297,0.329590,-0.254395
1762435488972440,27.682928,-17.317074,9.207317,0.904297,0.323730,-0.256836
1762435488982565,-55.853661,-2.073171,27.621952,0.901855,0.320801,-0.262695
1762435488992690,-87.682930,-21.463415,29.390245,0.903320,0.326172,-0.258789
1762435489002814,-55.060978,-32.804878,13.475610,0.905762,0.330566,-0.249023
1762435489012939,-2.378049,-22.621952,3.536585,0.904785,0.330078,-0.253418
1762435489023064,-44.329269,-22.682928,11.402439,0.903809,0.330566,-0.256348
1762435489033189,-0.609756,2.560976,8.048780,0.903809,0.325684,-0.255859
1762435489043314,-87.378052,-12.317074,17.865854,0.903320,0.330078,-0.256836
1762435489053438,-31.402439,-16.463415,8.597561,0.903809,0.329590,-0.252930
1762435489063563,8.292683,-13.292684,3.719512,0.903320,0.329590,-0.257324
1762435489073688,-48.658539,-29.634148,15.243903,0.902344,0.329102,-0.257324
1762435489083813,-5.243903,-19.268293,5.731708,0.902832,0.329590,-0.256348
1762435489093938,6.707317,-10.609756,3.170732,0.902832,0.329102,-0.258789
1762435489104063,-10.487805,-17.073172,5.487805,0.902832,0.329590,-0.258301
1762435489114187,84.451225,2.560976,-11.097561,0.904297,0.328613,-0.252930
1762435489124312,100.792686,2.621951,-8.475610,0.900391,0.329102,-0.269531
1762435489134437,6.585366,-22.195122,12.317074,0.899902,0.312988,-0.272949
1762435489144566,-25.975611,-9.268293,36.219513,0.895020,0.311523,-0.287109
1762435489154686,-135.914642,-73.780487,53.902439,0.897461,0.318359,-0.284180
1762435489164811,39.573174,-49.695122,24.634148,0.900391,0.322266,-0.273438
1762435489174937,45.853661,-43.048782,17.134148,0.900879,0.321777,-0.274902
1762435489185061,58.414635,-14.024390,11.951220,0.901855,0.318359,-0.270996
1762435489195186,91.036591,25.304878,-5.670732,0.903320,0.320801,-0.267090
1762435489205311,194.207321,52.804878,-29.817074,0.904785,0.319336,-0.268066
1762435489215436,162.012192,40.853661,-25.914635,0.901855,0.315918,-0.277344
1762435489225560,100.853661,2.682927,-14.939025,0.900391,0.312988,-0.284668
1762435489235685,36.463417,-17.926830,-6.768293,0.897949,0.308105,-0.291504
1762435489245812,74.390244,9.634147,-9.634147,0.897461,0.304199,-0.291016
1762435489255935,63.414635,18.902439,-10.548780,0.898926,0.304688,-0.293457
1762435489266060,82.621956,46.646343,-15.670732,0.900391,0.301758,-0.289062
1762435489276184,147.012192,65.548782,-32.378048,0.901367,0.301270,-0.294434
1762435489286309,67.012199,41.585365,-22.256098,0.901855,0.297852,-0.303223
1762435489296434,8.902439,12.317074,-14.207317,0.903320,0.296875,-0.307617
1762435489306559,-1.890244,-7.134147,-13.414635,0.904297,0.294922,-0.308105
1762435489316685,-14.451220,-15.000000,-13.109756,0.901855,0.292969,-0.314453
1762435489326809,-88.719513,-24.207317,2.378049,0.899902,0.289062,-0.317383
1762435489336933,-76.707321,7.560976,3.170732,0.898926,0.287109,-0.310059
1762435489347058,-12.987805,57.987804,-9.390244,0.898438,0.288086,-0.305664
1762435489357183,12.621951,76.280487,-16.402439,0.899414,0.290527,-0.302734
1762435489367308,16.158537,72.987808,-23.963415,0.900879,0.293945,-0.299316
1762435489377433,17.012196,51.585365,-26.524391,0.902832,0.296387,-0.298340
1762435489387559,-21.951220,3.780488,-22.012196,0.904297,0.296875,-0.299805
1762435489397682,-16.524391,11.158537,-12.926829,0.902832,0.287598,-0.309570
1762435489407807,-116.463417,-6.280488,17.134148,0.903809,0.289062,-0.312500
1762435489417932,-111.158539,-17.926830,15.487805,0.903320,0.288086,-0.305664
1762435489428057,-84.939026,-12.378049,14.939025,0.901855,0.290527,-0.305664
1762435489438182,-114.878052,-31.768293,17.865854,0.901367,0.290039,-0.297363
1762435489448306,-33.170731,1.463415,2.804878,0.901367,0.292969,-0.290039
1762435489458432,11.646341,23.658537,-7.560976,0.902832,0.295410,-0.287109
1762435489468557,-4.329268,28.780489,-9.451220,0.904785,0.296875,-0.281250
1762435489478681,69.451218,50.853661,-20.365854,0.905762,0.299316,-0.275879
1762435489488806,58.658539,24.878050,-24.878050,0.905762,0.301270,-0.278320
1762435489498930,55.000000,19.024391,-17.073172,0.905273,0.296875,-0.278320
1762435489509056,6.341464,-3.414634,-7.073171,0.904785,0.298340,-0.286133
1762435489519180,-62.439026,-23.109756,11.036586,0.903809,0.296875,-0.284180
1762435489529306,-32.500000,-5.304878,12.621951,0.905273,0.299316,-0.277344
1762435489539430,-26.097561,-5.670732,10.792684,0.905273,0.302246,-0.273926
1762435489549555,-6.951220,-0.731707,12.256098,0.904785,0.303223,-0.272461
1762435489559680,-25.243902,-1.646342,12.560976,0.905762,0.305176,-0.267578
1762435489569804,-3.414634,6.829268,5.000000,0.906738,0.307617,-0.263672
1762435489579929,31.341465,9.085366,-1.097561,0.907715,0.309082,-0.260742
1762435489590054,43.170734,12.987805,-7.378049,0.909180,0.308594,-0.259766
1762435489600180,45.304878,14.878049,-10.365854,0.909668,0.307617,-0.262695
1762435489610303,23.414635,9.085366,-7.743903,0.910645,0.307617,-0.265137
1762435489620428,13.658537,7.621952,-4.390244,0.911133,0.304688,-0.264648
1762435489630553,22.073172,1.829268,-2.926829,0.910645,0.305176,-0.266113
1762435489640678,-17.134148,-23.963415,3.841464,0.910156,0.305176,-0.269043
1762435489650803,-31.768293,-36.646343,5.182927,0.910156,0.305176,-0.267090
1762435489660928,-18.292683,-32.073170,3.658537,0.909668,0.304688,-0.265625
1762435489671054,-8.719512,-24.329269,3.780488,0.909668,0.305176,-0.264648
1762435489681177,20.548780,-8.597561,-1.463415,0.909668,0.304688,-0.263184
1762435489691302,27.987806,2.804878,2.804878,0.908691,0.303711,-0.268555
1762435489701427,-35.121952,-20.304878,13.902439,0.909180,0.304688,-0.270996
1762435489711552,-49.207317,-40.609756,11.219513,0.910645,0.307617,-0.265137
1762435489721677,37.317074,-24.146341,2.560976,0.909180,0.302734,-0.270020
1762435489731802,-37.012196,-19.512196,18.353659,0.907715,0.302246,-0.279297
1762435489741928,-55.243904,-10.609756,24.939026,0.908203,0.300293,-0.278320
1762435489752051,-40.365856,-14.512196,21.890244,0.909668,0.306641,-0.274902
1762435489762176,19.634148,-33.780487,6.951220,0.910645,0.304688,-0.269043
1762435489772301,18.963415,-35.609756,6.768293,0.907715,0.306152,-0.274902
1762435489782426,-25.548780,-43.963417,13.658537,0.908203,0.304199,-0.273438
1762435489792551,45.914635,2.012195,10.182927,0.904785,0.301270,-0.282227
1762435489802675,-40.853661,-8.170732,25.182928,0.905273,0.299316,-0.283203
1762435489812802,-43.963417,-22.439026,23.658537,0.905762,0.298828,-0.278320
1762435489822925,4.329268,-19.146341,10.609756,0.906738,0.304688,-0.274414
1762435489833049,59.512196,-14.024390,-4.207317,0.905762,0.303711,-0.279785
1762435489843174,-28.414635,-12.743903,12.743903,0.905762,0.302734,-0.281738
1762435489853299,25.670732,11.341464,1.829268,0.906250,0.301270,-0.277832
1762435489863424,67.317078,29.573172,-7.317073,0.905762,0.300293,-0.280762
1762435489873549,65.609756,18.719513,-8.231708,0.905762,0.299316,-0.284668
1762435489883676,-0.914634,-13.170732,-0.609756,0.906250,0.298340,-0.293457
1762435489893798,-6.036585,-15.792684,0.548781,0.906738,0.297852,-0.291016
1762435489903923,-3.353659,-21.463415,-3.414634,0.906250,0.296875,-0.295898
1762435489914048,-21.646341,-12.073171,1.158537,0.904785,0.292480,-0.296387
1762435489924173,-20.304878,5.487805,-0.731707,0.903320,0.293945,-0.297363
1762435489934298,-14.695123,17.743902,-3.353659,0.903320,0.293457,-0.294922
1762435489944422,6.463415,29.634148,-5.853659,0.902832,0.292969,-0.298828
1762435489954550,-64.085365,17.439024,11.707317,0.902344,0.291992,-0.301270
1762435489964672,-36.646343,15.731708,7.743903,0.902832,0.293457,-0.299316
1762435489974797,-53.841465,-4.695122,8.292683,0.902832,0.294434,-0.301270
1762435489984922,-79.512199,-15.243903,11.280488,0.902344,0.291504,-0.301270
1762435489995046,-82.500000,-6.036585,12.500000,0.902344,0.291992,-0.300781
1762435490005172,-38.841465,8.292683,1.524390,0.902344,0.292969,-0.295898
1762435490015296,-7.987805,19.939024,-9.024390,0.903320,0.294434,-0.293457
1762435490025423,-0.121951,22.439026,-13.475610,0.903809,0.295410,-0.292969
1762435490035546,-2.073171,23.780489,-12.682927,0.903809,0.294434,-0.294922
1762435490045670,-28.536587,15.487805,-5.609756,0.904297,0.295410,-0.293457
1762435490055795,-9.268293,8.292683,-8.658537,0.904785,0.296875,-0.292480
1762435490065920,-11.219513,4.024390,-5.792683,0.905273,0.297852,-0.290527
1762435490076046,-7.500000,1.585366,-4.451220,0.904297,0.298340,-0.289062
1762435490086170,-6.951220,6.829268,-4.024390,0.904297,0.299316,-0.286133
1762435490096295,27.012196,14.146341,-7.500000,0.904785,0.301270,-0.282715
1762435490106419,31.097561,9.695122,-10.000000,0.904785,0.302246,-0.280762
1762435490116544,44.268295,9.329268,-12.378049,0.905273,0.302734,-0.279297
1762435490126669,36.463417,10.426829,-8.048780,0.904297,0.302246,-0.284180
1762435490136794,9.451220,2.743902,-5.000000,0.904785,0.303223,-0.280762
1762435490146920,33.292683,8.780488,-9.756098,0.905273,0.304199,-0.279297
1762435490157043,35.182926,14.512196,-11.646341,0.905273,0.304688,-0.279297
1762435490167168,44.695122,21.890244,-13.963415,0.906250,0.306152,-0.276855
1762435490177293,61.768295,30.670732,-17.743902,0.905762,0.306152,-0.273926
1762435490187418,62.743904,28.170732,-19.146341,0.905273,0.308105,-0.273438
1762435490197543,65.609756,22.804878,-17.621952,0.905762,0.306641,-0.271973
1762435490207668,52.195122,19.512196,-12.987805,0.905273,0.307617,-0.276367
1762435490217793,11.280488,4.634147,-3.353659,0.905273,0.306641,-0.278320
1762435490227917,14.390244,0.731707,-2.987805,0.905273,0.307129,-0.275879
1762435490238042,1.768293,-7.804878,-0.487805,0.905273,0.307129,-0.277832
1762435490248168,5.487805,-5.426829,0.243902,0.907227,0.308594,-0.274902
1762435490258292,32.439026,8.841464,-3.292683,0.906738,0.308594,-0.272461
1762435490268417,25.121952,10.121951,-1.402439,0.906250,0.308105,-0.274414
1762435490278541,20.365854,6.890244,-0.365854,0.906250,0.308105,-0.272949
1762435490288666,47.987804,13.597561,-3.780488,0.906738,0.308105,-0.271484
1762435490298791,37.317074,2.195122,-1.219512,0.906250,0.308105,-0.273926
1762435490308915,21.158537,-11.829268,1.341463,0.906738,0.308105,-0.274414
1762435490319040,24.085367,-14.695123,-0.548781,0.907227,0.307617,-0.275391
1762435490329165,18.231709,-18.475611,1.585366,0.906250,0.307129,-0.276855
1762435490339290,28.597561,-15.000000,0.243902,0.907227,0.306152,-0.274902
1762435490349415,46.036587,-7.134147,-2.926829,0.906738,0.306152,-0.276367
1762435490359539,38.597561,-2.804878,1.646342,0.908203,0.303711,-0.277832
1762435490369664,19.268293,-0.914634,4.268293,0.907227,0.304688,-0.281250
1762435490379789,24.756098,-9.756098,4.573171,0.907227,0.303223,-0.281738
1762435490389914,19.146341,-10.731708,3.292683,0.907227,0.303223,-0.282715
1762435490400039,21.280489,-7.012195,-3.963415,0.907227,0.303711,-0.281250
1762435490410164,49.451221,0.243902,-11.463415,0.907227,0.303223,-0.279785
1762435490420289,86.829269,17.256098,-17.682928,0.905273,0.300781,-0.280762
1762435490430413,75.853661,26.890245,-16.707317,0.903809,0.298828,-0.283691
1762435490440538,59.695122,23.658537,-11.158537,0.903320,0.297852,-0.285156
1762435490450663,50.487804,13.597561,-9.024390,0.902344,0.295898,-0.290039
1762435490460788,31.524391,-2.317073,-5.243903,0.903320,0.295898,-0.291016
1762435490470913,26.890245,-4.085366,-4.207317,0.902832,0.294434,-0.293457
1762435490481037,16.768293,0.975610,-2.621951,0.903320,0.293457,-0.293457
1762435490491162,36.646343,13.170732,-4.329268,0.903320,0.292480,-0.293457
1762435490501287,48.658539,21.768293,-7.073171,0.903809,0.291504,-0.294434
1762435490511412,45.426830,21.463415,-6.219512,0.903320,0.290527,-0.295410
1762435490521537,33.963417,13.414635,-2.560976,0.903320,0.289062,-0.297363
1762435490531661,28.658537,1.646342,-0.731707,0.902344,0.288574,-0.300293
1762435490541786,-5.426829,-16.219513,3.353659,0.901855,0.286621,-0.302246
1762435490551911,-8.414635,-16.646341,4.756098,0.902832,0.285156,-0.302246
1762435490562036,2.073171,-7.560976,2.804878,0.902832,0.284668,-0.303223
1762435490572161,5.792683,-2.378049,0.731707,0.903320,0.284180,-0.303223
1762435490582286,5.975610,4.207317,-0.365854,0.903320,0.283691,-0.303711
1762435490592411,-3.780488,3.109756,0.975610,0.903320,0.282715,-0.306152
1762435490602535,-26.524391,-6.036585,4.695122,0.902832,0.281738,-0.308105
1762435490612660,-47.012196,-14.085366,8.780488,0.902344,0.281250,-0.309570
1762435490622785,-55.548782,-15.548780,10.365854,0.901855,0.280762,-0.310547
1762435490632910,-72.865852,-11.829268,11.646341,0.901855,0.279785,-0.311035
1762435490643034,-71.768295,-2.682927,10.853659,0.902344,0.279785,-0.310059
1762435490653159,-59.878052,8.841464,6.646342,0.902832,0.280762,-0.308594
1762435490663284,-53.597561,13.597561,3.231707,0.903320,0.281250,-0.308594
1762435490673409,-71.585365,4.695122,6.036585,0.903320,0.281738,-0.310059
1762435490683534,-87.134148,-7.378049,9.634147,0.902832,0.282227,-0.310059
1762435490693658,-97.256104,-17.560976,11.158537,0.902344,0.283203,-0.308105
1762435490703783,-88.353661,-11.585366,9.207317,0.902344,0.284180,-0.305664
1762435490713908,-69.756096,1.097561,6.341464,0.902832,0.285645,-0.302246
1762435490724033,-45.548782,17.195122,1.768293,0.903809,0.287598,-0.297363
1762435490734158,-15.853659,28.048780,-4.695122,0.904785,0.289551,-0.293457
1762435490744282,5.731708,28.597561,-9.695122,0.905273,0.291992,-0.291504
1762435490754407,13.536586,17.621952,-10.731708,0.905762,0.293457,-0.290527
1762435490764532,9.146341,6.585366,-8.109756,0.906250,0.292969,-0.291992
1762435490774657,-8.170732,-2.317073,-2.865854,0.905273,0.292480,-0.292969
1762435490784781,-21.036587,-11.402439,1.829268,0.905273,0.293945,-0.290039
1762435490794906,5.609756,-7.317073,0.548781,0.905273,0.294922,-0.287109
1762435490805031,17.134148,-0.609756,-0.609756,0.905273,0.295898,-0.286133
1762435490815156,17.195122,0.304878,0.792683,0.904785,0.296387,-0.284668
1762435490825281,21.890244,-0.914634,1.280488,0.904785,0.297852,-0.283691
1762435490835406,20.731709,-2.195122,0.000000,0.904785,0.298340,-0.282715
1762435490845530,18.841463,-4.451220,0.670732,0.904785,0.298828,-0.283691
1762435490855656,16.707317,-9.939025,1.402439,0.904785,0.298828,-0.283691
1762435490865781,5.243903,-10.792684,2.317073,0.904297,0.298828,-0.283691
1762435490875905,0.000000,-3.536585,3.231707,0.904297,0.299316,-0.283691
1762435490886030,2.865854,-0.853659,2.682927,0.905273,0.300293,-0.283203
1762435490896154,8.902439,4.512195,1.158537,0.905273,0.300293,-0.282227
1762435490906280,8.292683,4.268293,0.792683,0.905762,0.301270,-0.283203
1762435490916404,-10.182927,-3.170732,2.134146,0.905762,0.301758,-0.284180
1762435490926529,-21.158537,-8.292683,3.597561,0.905762,0.301758,-0.284668
1762435490936654,-15.731708,-7.743903,4.695122,0.906250,0.301270,-0.284668
1762435490946779,-22.378050,-7.317073,6.890244,0.905273,0.301758,-0.285156
1762435490956903,-30.792685,-11.219513,7.682927,0.905273,0.302246,-0.283691
1762435490967029,-16.158537,-6.036585,6.524390,0.903809,0.300781,-0.283691
1762435490977153,-19.695122,-5.670732,9.390244,0.903320,0.300781,-0.285645
1762435490987278,-31.768293,-10.914635,9.512196,0.903809,0.301270,-0.283203
1762435490997403,2.317073,-4.817073,4.329268,0.905273,0.302246,-0.280762
1762435491007528,12.926829,-2.682927,2.073171,0.905273,0.302734,-0.283203
1762435491017652,0.609756,-6.463415,3.109756,0.905762,0.303223,-0.282715
1762435491027777,20.548780,-6.280488,1.341463,0.905762,0.302734,-0.281250
1762435491037902,31.158537,-4.207317,-0.304878,0.905273,0.302246,-0.283203
1762435491048027,26.341465,-8.292683,2.073171,0.904785,0.302246,-0.283691
1762435491058152,26.158537,-11.341464,2.865854,0.904785,0.301270,-0.283691
1762435491068276,38.841465,-3.475610,-0.609756,0.903809,0.300293,-0.284668
1762435491078402,48.292683,3.231707,-2.012195,0.904785,0.300293,-0.285156
1762435491088526,44.268295,4.451220,-4.146341,0.904785,0.299805,-0.286133
1762435491098651,62.134148,12.256098,-5.060976,0.905762,0.295410,-0.288086
1762435491108776,33.292683,9.390244,1.158537,0.904297,0.298828,-0.293457
1762435491118901,28.353659,-6.280488,-7.621952,0.907715,0.298340,-0.289551
1762435491129025,77.987808,14.085366,-6.890244,0.904785,0.293457,-0.298340
1762435491139150,-35.182926,-18.536587,8.841464,0.905273,0.292969,-0.296875
1762435491149276,7.682927,-9.451220,1.402439,0.903809,0.292969,-0.295410
1762435491159400,28.475611,5.243903,0.182927,0.902344,0.292480,-0.298828
1762435491169524,4.146341,7.256098,3.902439,0.902344,0.291016,-0.298340
1762435491179649,13.170732,20.548780,0.975610,0.902832,0.290527,-0.295898
1762435491189774,26.219513,18.719513,-2.682927,0.902344,0.290527,-0.299805
1762435491199899,-6.646342,9.268293,2.195122,0.903320,0.289062,-0.299316
1762435491210024,19.573172,9.817074,-3.109756,0.903320,0.289062,-0.301270
1762435491220150,-41.524391,-12.621951,5.304878,0.903320,0.288574,-0.305176
1762435491230273,-5.304878,-0.792683,0.182927,0.904297,0.287598,-0.298340
1762435491240398,8.170732,7.439024,-1.890244,0.903320,0.287109,-0.305664
1762435491250523,-53.170734,-5.609756,8.902439,0.903809,0.286133,-0.302246
1762435491260647,15.121952,15.609756,1.097561,0.904297,0.285645,-0.299805
1762435491270773,-9.695122,10.792684,3.170732,0.903809,0.285156,-0.303711
1762435491280897,-45.243904,-8.292683,10.000000,0.903809,0.285156,-0.305176
1762435491291024,-35.609756,-3.841464,9.146341,0.904785,0.284668,-0.301758
1762435491301147,-21.829269,-6.341464,5.792683,0.905273,0.285645,-0.304199
1762435491311272,-52.743904,-12.439025,7.865854,0.905273,0.284668,-0.302734
1762435491321397,-17.134148,-0.731707,3.780488,0.906738,0.286133,-0.300781
1762435491331521,-39.939026,-4.573171,5.548780,0.905273,0.284668,-0.301758
1762435491341646,-28.048780,5.121951,5.000000,0.905273,0.285156,-0.299805
1762435491351771,-39.573174,-4.390244,3.719512,0.905273,0.285645,-0.298340
1762435491361897,-14.390244,7.134147,2.378049,0.904785,0.284668,-0.297852
1762435491372021,-27.012196,8.597561,0.121951,0.904785,0.286133,-0.297363
1762435491382146,-22.134148,8.536586,-2.012195,0.905762,0.286621,-0.294922
1762435491392270,-4.207317,15.304878,-5.243903,0.906250,0.287109,-0.293945
1762435491402395,0.060976,7.865854,-9.512196,0.907715,0.290039,-0.288574
1762435491412520,39.512196,26.768293,-13.902439,0.906250,0.286133,-0.293945
1762435491422645,-22.682928,8.841464,-0.548781,0.906250,0.286621,-0.295410
1762435491432771,-22.134148,-0.121951,1.402439,0.906738,0.287109,-0.291504
1762435491442894,-4.268293,1.463415,-2.500000,0.906738,0.288574,-0.291016
1762435491453019,-7.865854,-6.951220,0.853659,0.906250,0.289551,-0.291016
1762435491463144,-2.317073,0.243902,1.219512,0.907227,0.289062,-0.286133
1762435491473269,28.414635,12.134147,-6.158537,0.906738,0.290527,-0.286133
1762435491483394,6.402439,1.097561,-4.024390,0.907227,0.291016,-0.282715
1762435491493518,54.878052,12.621951,-11.097561,0.907227,0.292969,-0.281250
1762435491503645,51.524391,9.695122,-10.060976,0.907715,0.290527,-0.285645
1762435491513768,9.512196,2.804878,-0.609756,0.908203,0.291016,-0.285645
1762435491523893,6.219512,-9.939025,0.243902,0.908203,0.291016,-0.287109
1762435491534017,-5.853659,-20.426830,2.500000,0.907227,0.291016,-0.288086
1762435491544142,-3.414634,-17.682928,4.024390,0.907227,0.289551,-0.286133
1762435491554268,-4.817073,-11.341464,4.329268,0.907715,0.291992,-0.286621
1762435491564392,-1.768293,-5.060976,1.280488,0.908203,0.291992,-0.286133
1762435491574519,0.975610,2.317073,3.292683,0.907715,0.291504,-0.285645
1762435491584642,-11.768293,-1.524390,8.475610,0.907227,0.291504,-0.287598
1762435491594766,-40.731709,-18.353659,15.000000,0.906250,0.291504,-0.290039
1762435491604891,-48.780487,-22.987806,14.512196,0.906738,0.291992,-0.289551
1762435491615016,-60.426830,-27.987806,15.914635,0.906250,0.291992,-0.291992
1762435491625142,-83.597565,-24.207317,21.829269,0.905273,0.291504,-0.290527
1762435491635266,-51.707317,-8.353659,16.524391,0.905273,0.291016,-0.288086
1762435491645393,-27.804878,4.695122,11.036586,0.905273,0.292480,-0.286621
1762435491655515,-23.963415,1.768293,9.024390,0.906250,0.293457,-0.287109
1762435491665640,-35.365856,-3.963415,10.792684,0.906738,0.292969,-0.287598
1762435491675766,-29.451220,-9.878049,11.158537,0.906738,0.293457,-0.288574
1762435491685889,-40.365856,-22.134148,13.353659,0.906738,0.293457,-0.289551
1762435491696015,-44.390244,-30.914635,13.658537,0.906250,0.293945,-0.288574
1762435491706139,-26.829269,-22.621952,9.207317,0.906738,0.293457,-0.286133
1762435491716264,8.292683,-2.073171,0.792683,0.906738,0.293457,-0.285156
1762435491726389,21.280489,9.451220,-4.085366,0.907227,0.293945,-0.284180
1762435491736513,50.121952,18.292683,-10.182927,0.908203,0.293945,-0.283203
1762435491746638,65.975609,15.182927,-14.024390,0.907715,0.293945,-0.286133
1762435491756763,21.890244,-7.560976,-9.695122,0.907227,0.293945,-0.289062
1762435491766888,27.317074,-15.487805,-10.060976,0.908203,0.293457,-0.288574
1762435491777013,46.585365,-4.207317,-12.743903,0.907715,0.292969,-0.290039
1762435491787138,45.792683,3.902439,-13.475610,0.906738,0.290039,-0.291504
1762435491797262,17.256098,8.719512,-7.500000,0.906250,0.293457,-0.292969
1762435491807387,51.402439,6.890244,-18.963415,0.906250,0.294434,-0.289062
1762435491817512,85.365852,18.170732,-24.878050,0.907227,0.294434,-0.289062
1762435491827637,46.646343,13.109756,-16.158537,0.906250,0.293457,-0.293457
1762435491837762,40.000000,12.804878,-12.987805,0.905762,0.292969,-0.295410
1762435491847886,34.878048,18.536587,-6.219512,0.904785,0.291016,-0.298340
1762435491858011,-22.621952,0.487805,4.512195,0.903809,0.291504,-0.302246
1762435491868136,-27.439026,-7.500000,4.634147,0.904297,0.292480,-0.297852
1762435491878261,13.475610,1.463415,-2.439024,0.903320,0.292969,-0.298340
1762435491888385,-2.256098,3.597561,0.000000,0.903320,0.292969,-0.298340
1762435491898511,11.951220,16.463415,-4.390244,0.903320,0.292480,-0.296387
1762435491908635,16.402439,21.829269,-5.243903,0.902832,0.292480,-0.297363
1762435491918760,24.634148,22.621952,-6.524390,0.903320,0.292969,-0.296875
1762435491928885,17.073172,8.658537,-3.780488,0.902832,0.292969,-0.300293
1762435491939010,-37.682926,-14.268293,6.768293,0.901855,0.291992,-0.302734
1762435491949135,-37.926830,-17.743902,8.963415,0.901855,0.291992,-0.300781
1762435491959259,-16.707317,-12.012196,5.853659,0.901367,0.292480,-0.300293
1762435491969384,-20.548780,-7.500000,4.573171,0.901855,0.291992,-0.298828
1762435491979509,6.829268,15.182927,-2.621951,0.902344,0.293457,-0.294922
1762435491989634,37.804878,24.695122,-8.170732,0.903320,0.293457,-0.296875
1762435491999759,-6.524390,10.426829,-2.500000,0.903320,0.292969,-0.298828
1762435492009884,-3.719512,4.329268,-1.463415,0.903320,0.292969,-0.298340
1762435492020009,-12.560976,-10.609756,0.792683,0.902832,0.293457,-0.300781
1762435492030133,-49.207317,-23.109756,7.987805,0.902344,0.292969,-0.302246
1762435492040259,-50.365856,-17.134148,7.987805,0.902832,0.293457,-0.298828
1762435492050383,-8.597561,5.060976,2.378049,0.902832,0.293457,-0.295898
1762435492060507,-8.841464,16.158537,0.365854,0.902344,0.294922,-0.294434
1762435492070633,15.548780,25.243902,-3.719512,0.902344,0.295898,-0.292969
1762435492080757,12.439025,22.378050,-5.121951,0.902832,0.297852,-0.291016
1762435492090882,21.768293,12.500000,-9.512196,0.903809,0.297852,-0.288574
1762435492101006,34.085365,15.975610,-10.060976,0.903809,0.296387,-0.292480
1762435492111131,15.304878,13.780488,-2.865854,0.903809,0.294922,-0.293945
1762435492121256,5.487805,9.939025,-0.914634,0.904297,0.295410,-0.292480
1762435492131381,10.853659,6.524390,-1.707317,0.904297,0.295410,-0.291992
1762435492141506,9.512196,-1.585366,0.731707,0.904297,0.295898,-0.292480
1762435492151630,19.268293,-2.256098,-0.243902,0.904297,0.296875,-0.288574
1762435492161755,44.390244,4.756098,-3.902439,0.904297,0.295410,-0.288086
1762435492171880,22.378050,6.036585,-0.243902,0.903809,0.295898,-0.288086
1762435492182005,44.634148,6.829268,-2.195122,0.904297,0.296875,-0.286621
1762435492192130,57.378052,11.768293,-4.756098,0.904785,0.294922,-0.287109
1762435492202254,40.609756,7.195122,-1.768293,0.904785,0.294434,-0.288574
1762435492212379,29.512196,-6.463415,0.548781,0.904785,0.294434,-0.291504
1762435492222505,17.804878,-13.414635,0.914634,0.905273,0.293945,-0.291992
1762435492232629,10.426829,-14.634147,2.317073,0.905762,0.292969,-0.290527
1762435492242754,30.000000,-6.768293,-1.524390,0.905273,0.292480,-0.291016
1762435492252879,19.207317,-5.609756,-0.182927,0.904785,0.291504,-0.293945
1762435492263004,0.853659,-3.170732,3.841464,0.904785,0.289551,-0.293457
1762435492273129,4.268293,0.000000,3.963415,0.904297,0.289551,-0.295410
1762435492283253,-21.463415,-9.878049,8.353659,0.903809,0.288574,-0.297852
1762435492293378,-24.756098,-16.463415,10.670732,0.904785,0.289062,-0.296875
1762435492303503,-25.426830,-12.865854,7.560976,0.904297,0.288574,-0.299316
1762435492313627,-49.634148,-14.634147,11.280488,0.904297,0.287109,-0.301270
1762435492323752,-54.512196,-6.951220,12.317074,0.905273,0.287598,-0.299316
1762435492333877,-9.390244,5.060976,1.341463,0.906250,0.288086,-0.295898
1762435492344003,0.792683,10.914635,-1.646342,0.905762,0.287598,-0.297852
1762435492354127,-19.024391,3.414634,-0.426829,0.905762,0.288086,-0.298828
1762435492364251,-7.012195,1.524390,-2.743902,0.905762,0.288086,-0.297852
1762435492374376,-5.853659,-0.304878,-2.865854,0.906250,0.287598,-0.297852
1762435492384501,-1.829268,-2.256098,-3.231707,0.906250,0.287109,-0.298828
1762435492394626,-1.036585,-1.280488,0.000000,0.905273,0.287109,-0.299805
1762435492404751,-15.426829,-9.146341,3.231707,0.905273,0.286621,-0.299316
1762435492414877,-12.682927,-8.841464,4.146341,0.904785,0.287598,-0.298828
1762435492425000,5.670732,-5.182927,1.646342,0.904785,0.287598,-0.297852
1762435492435125,12.804878,-0.365854,0.975610,0.904297,0.287109,-0.297852
1762435492445250,18.292683,6.097561,-1.524390,0.904785,0.288086,-0.297363
1762435492455375,25.792683,7.500000,-3.780488,0.904785,0.288086,-0.299316
1762435492465500,15.060976,3.231707,-1.524390,0.905273,0.287598,-0.298340
1762435492475624,23.658537,2.500000,-2.560976,0.904785,0.287109,-0.299316
1762435492485751,12.134147,-2.560976,0.000000,0.903809,0.287109,-0.300781
1762435492495874,1.402439,-9.451220,2.012195,0.904297,0.287109,-0.301270
1762435492505999,-1.402439,-6.524390,-0.792683,0.904297,0.286621,-0.301270
1762435492516123,12.743903,2.195122,-4.573171,0.904785,0.287109,-0.301270
1762435492526248,10.548780,8.353659,-5.243903,0.905273,0.286133,-0.301758
1762435492536374,5.792683,10.853659,-4.207317,0.904297,0.286621,-0.303711
1762435492546498,-14.268293,2.743902,-3.841464,0.904297,0.286621,-0.303711
1762435492556625,-18.048780,0.609756,-2.682927,0.903809,0.286621,-0.304199
1762435492566747,-31.036587,-2.500000,-0.426829,0.903320,0.286621,-0.305176
1762435492576872,-35.609756,0.914634,1.036585,0.903320,0.287109,-0.304199
1762435492586997,-30.853659,8.597561,0.243902,0.903320,0.287598,-0.303223
1762435492597122,-38.353661,9.939025,2.012195,0.903320,0.288086,-0.303711
1762435492607247,-36.524391,7.073171,2.804878,0.903320,0.288574,-0.302246
1762435492617371,-31.829269,3.597561,0.670732,0.903320,0.289062,-0.301758
1762435492627498,-36.707317,-2.743902,1.890244,0.903320,0.290039,-0.301758
1762435492637621,-40.670734,-7.378049,3.353659,0.903320,0.291016,-0.300293
1762435492647746,-34.573170,-4.512195,2.560976,0.903320,0.291016,-0.298340
1762435492657870,-14.817074,3.048780,1.890244,0.902832,0.292480,-0.295898
1762435492667995,-4.390244,7.743903,0.487805,0.902832,0.293457,-0.293945
1762435492678121,4.939024,7.987805,0.060976,0.902832,0.293945,-0.293457
1762435492688245,3.048780,8.719512,1.402439,0.903320,0.294434,-0.292480
1762435492698370,11.951220,6.585366,1.036585,0.903320,0.294922,-0.291992
1762435492708495,13.597561,-0.792683,0.792683,0.903320,0.295410,-0.291504
1762435492718619,19.817074,-6.524390,0.670732,0.903809,0.295898,-0.290039
1762435492728745,27.134148,-3.841464,-2.621951,0.904297,0.296387,-0.290039
1762435492738869,30.365854,-1.158537,-4.512195,0.904785,0.296875,-0.289062
1762435492748994,41.829269,2.621951,-5.853659,0.905273,0.297363,-0.288086
1762435492759119,52.743904,8.414635,-8.719512,0.904297,0.296387,-0.289062
1762435492769244,33.475609,6.707317,-5.304878,0.904785,0.296875,-0.290527
1762435492779368,16.524391,3.048780,-1.829268,0.904785,0.296875,-0.290039
1762435492789493,25.304878,4.634147,-1.219512,0.904297,0.296875,-0.291016
1762435492799618,5.670732,1.402439,1.402439,0.903320,0.296387,-0.292480
1762435492809743,5.548780,2.926829,1.463415,0.904785,0.296387,-0.290039
1762435492819867,7.865854,12.743903,0.609756,0.904785,0.296387,-0.291504
1762435492829992,-9.573171,10.304878,4.146341,0.904297,0.296387,-0.292480
1762435492840117,-17.256098,2.804878,8.536586,0.904785,0.295898,-0.291992
1762435492850242,-20.731709,-4.817073,9.756098,0.904297,0.295410,-0.293457
1762435492860367,-33.719513,-12.865854,10.609756,0.904297,0.295410,-0.293457
1762435492870491,-33.292683,-14.695123,10.914635,0.904785,0.294922,-0.292969
1762435492880616,-39.024391,-11.829268,11.402439,0.905273,0.294922,-0.292969
1762435492890741,-29.634148,-5.304878,11.280488,0.905273,0.294434,-0.290527
1762435492900866,-14.512196,-3.048780,10.731708,0.905273,0.294434,-0.290527
1762435492910991,-28.597561,-4.634147,10.609756,0.905273,0.294434,-0.291992
1762435492921116,-31.158537,-10.000000,12.500000,0.905273,0.293945,-0.290527
1762435492931240,-23.292683,-9.939025,6.707317,0.907227,0.294434,-0.290527
1762435492941365,-17.134148,-9.268293,3.353659,0.907715,0.294922,-0.290039
1762435492951490,-4.390244,-7.621952,-0.365854,0.908691,0.295410,-0.288086
1762435492961614,16.463415,-1.951220,-6.890244,0.908691,0.293945,-0.289062
1762435492971739,1.585366,-4.756098,-2.926829,0.907227,0.291504,-0.292969
1762435492981864,-27.134148,-11.829268,4.451220,0.906738,0.290527,-0.294434
1762435492991989,-35.548782,-12.743903,7.378049,0.905762,0.290527,-0.295410
1762435493002114,-48.902439,-19.573172,4.268293,0.907227,0.291016,-0.289062
1762435493012238,-20.426830,-8.963415,3.963415,0.905273,0.294434,-0.292480
1762435493022363,-20.792683,-8.475610,1.768293,0.904785,0.294922,-0.290039
1762435493032488,3.658537,8.170732,0.609756,0.905273,0.294922,-0.286133
1762435493042613,-8.536586,14.451220,0.975610,0.903809,0.294922,-0.289551
1762435493052738,-11.890244,9.085366,1.341463,0.904785,0.295898,-0.290039
1762435493062863,-27.195122,-0.182927,7.134147,0.904785,0.295898,-0.288086
1762435493072988,-14.634147,-3.719512,2.621951,0.903809,0.295898,-0.291504
1762435493083112,-43.414635,-9.695122,7.195122,0.904785,0.296387,-0.289062
1762435493093237,-17.317074,-2.378049,3.231707,0.905273,0.296875,-0.287109
1762435493103362,2.804878,7.621952,-2.378049,0.905273,0.297363,-0.287109
1762435493113488,21.524391,15.914635,-6.280488,0.906250,0.297852,-0.283691
1762435493123612,15.792684,16.219513,-6.829268,0.905273,0.298340,-0.287109
1762435493133736,1.890244,6.524390,-3.475610,0.906738,0.299316,-0.285156
1762435493143861,-0.853659,-1.890244,-1.402439,0.906250,0.299316,-0.287109
1762435493153986,-33.536587,-18.719513,6.524390,0.905273,0.298828,-0.289551
1762435493164111,-44.024391,-23.475611,8.780488,0.905273,0.298828,-0.287598
1762435493174235,-28.963415,-12.500000,6.341464,0.905273,0.299316,-0.285156
1762435493184361,-10.914635,-3.048780,1.097561,0.905273,0.300293,-0.285645
1762435493194485,-23.109756,3.841464,1.402439,0.905762,0.300781,-0.284180
1762435493204610,-3.292683,9.329268,-3.597561,0.905762,0.301758,-0.283203
1762435493214734,-22.439026,-3.719512,-0.487805,0.904785,0.302246,-0.286133
1762435493224859,-51.768295,-17.621952,5.609756,0.904297,0.302246,-0.285645
1762435493234984,-60.243904,-21.829269,10.182927,0.903320,0.302734,-0.287109
1762435493245110,-72.439026,-12.987805,12.500000,0.902832,0.302734,-0.285156
1762435493255236,-53.963417,-3.963415,9.329268,0.902832,0.304199,-0.281738
1762435493265359,-28.536587,14.878049,3.597561,0.903320,0.304688,-0.279297
1762435493275483,-11.890244,21.707317,-1.707317,0.904297,0.306152,-0.279297
1762435493285608,-18.170732,13.597561,-1.036585,0.904785,0.307617,-0.278320
1762435493295733,-22.195122,-0.365854,0.670732,0.904785,0.308105,-0.279785
1762435493305858,-35.975609,-13.231708,3.902439,0.904785,0.309082,-0.278320
1762435493315982,-21.036587,-12.500000,3.658537,0.904785,0.309570,-0.275391
1762435493326109,-3.658537,-7.987805,2.865854,0.904297,0.310547,-0.273926
1762435493336232,8.597561,2.500000,-1.280488,0.904297,0.311035,-0.270508
1762435493346357,34.695122,13.597561,-5.914634,0.904785,0.312500,-0.267578
1762435493356482,55.182930,16.707317,-7.378049,0.904785,0.313477,-0.268066
1762435493366606,47.682926,11.280488,-6.341464,0.904785,0.312988,-0.269531
1762435493376732,42.926830,3.536585,-3.048780,0.905273,0.312988,-0.270020
1762435493386856,30.182928,-7.134147,-1.402439,0.905273,0.312988,-0.271973
1762435493396983,31.036587,-11.768293,-0.792683,0.905273,0.313477,-0.270508
1762435493407105,40.426830,-4.573171,-1.524390,0.905273,0.312988,-0.270508
1762435493417230,43.109756,-0.670732,-0.426829,0.904785,0.312988,-0.270996
1762435493427355,42.804878,2.560976,-0.304878,0.903809,0.312500,-0.270996
1762435493437480,36.768295,3.780488,0.731707,0.903809,0.312500,-0.272461
1762435493447606,37.378048,1.097561,0.487805,0.903809,0.311523,-0.273926
1762435493457729,23.292683,-2.682927,1.280488,0.904297,0.311035,-0.275391
1762435493467854,18.536587,-5.792683,0.792683,0.904785,0.310547,-0.276855
1762435493477979,11.341464,-5.853659,-0.365854,0.904785,0.310059,-0.277832
1762435493488104,10.000000,-0.365854,-1.524390,0.904785,0.309082,-0.277832
1762435493498229,15.060976,5.182927,-1.036585,0.904785,0.308594,-0.279297
1762435493508353,11.402439,6.890244,-0.548781,0.904297,0.307617,-0.279785
1762435493518478,8.414635,4.695122,0.426829,0.903809,0.307129,-0.281250
1762435493528603,-11.341464,-2.195122,3.536585,0.903320,0.306641,-0.283691
1762435493538728,-16.036585,-6.768293,4.146341,0.903320,0.306152,-0.283691
1762435493548853,-8.475610,-4.695122,3.292683,0.903809,0.305664,-0.283203
1762435493558977,-1.829268,-0.609756,1.341463,0.904297,0.305176,-0.283203
1762435493569102,1.585366,3.109756,-0.426829,0.904785,0.305176,-0.283203
1762435493579227,14.634147,6.158537,-1.890244,0.904785,0.304688,-0.283203
1762435493589352,12.073171,3.292683,-0.609756,0.904297,0.304199,-0.284668
1762435493599477,7.865854,-0.975610,0.243902,0.903809,0.303223,-0.284668
1762435493609602,10.060976,-2.378049,0.792683,0.903809,0.302734,-0.285645
1762435493619726,10.914635,-1.219512,1.097561,0.903809,0.302246,-0.285156
1762435493629852,21.280489,4.817073,-1.402439,0.904297,0.302246,-0.285156
1762435493639976,35.975609,10.182927,-3.414634,0.904785,0.301758,-0.284180
1762435493650102,42.317074,12.073171,-5.182927,0.904785,0.301270,-0.285156
1762435493660225,39.329269,9.329268,-6.463415,0.904785,0.300781,-0.286133
1762435493670352,34.512196,4.695122,-5.426829,0.904785,0.300293,-0.287598
1762435493680476,32.804878,2.439024,-4.329268,0.904785,0.299316,-0.288086
1762435493690600,27.073172,2.987805,-3.353659,0.904785,0.298340,-0.289062
1762435493700725,18.841463,2.500000,-0.243902,0.904297,0.297852,-0.290039
1762435493710850,15.121952,3.353659,1.280488,0.904297,0.296875,-0.290527
1762435493720975,9.390244,5.121951,0.548781,0.903320,0.295898,-0.291504
1762435493731099,2.195122,4.085366,2.378049,0.903809,0.295410,-0.291992
1762435493741224,-5.304878,5.853659,1.219512,0.903809,0.294922,-0.291992
1762435493751349,-4.756098,7.682927,1.097561,0.904297,0.294434,-0.292480
1762435493761473,-11.341464,4.878049,2.378049,0.904297,0.293945,-0.293457
1762435493771598,-22.195122,4.756098,3.231707,0.905273,0.293457,-0.293945
1762435493781723,-31.097561,3.963415,5.731708,0.905273,0.292969,-0.294922
1762435493791848,-55.914635,-7.987805,11.768293,0.904297,0.292969,-0.296387
1762435493801973,-63.597561,-13.963415,11.829268,0.904297,0.293457,-0.293945
1762435493812098,-46.097561,-6.524390,9.573171,0.904297,0.292969,-0.292969
1762435493822222,-57.560978,-3.536585,7.987805,0.905273,0.293457,-0.291016
1762435493832347,-30.792685,7.378049,1.036585,0.906250,0.293457,-0.288574
1762435493842472,-20.670732,16.890244,-0.792683,0.906250,0.294434,-0.290039
1762435493852596,-33.353661,8.658537,0.182927,0.907227,0.293457,-0.288574
1762435493862721,-46.036587,1.158537,4.695122,0.906738,0.293945,-0.290527
1762435493872846,-66.524391,-17.743902,9.817074,0.906250,0.293945,-0.291016
1762435493882972,-65.121956,-25.304878,11.036586,0.906738,0.294922,-0.288086
1762435493893095,-56.890244,-20.548780,11.829268,0.906738,0.295410,-0.285645
1762435493903220,-47.682926,-9.634147,8.170732,0.907227,0.296387,-0.283691
1762435493913345,-10.914635,9.634147,1.646342,0.907715,0.297363,-0.278809
1762435493923470,10.609756,12.987805,-2.743902,0.908203,0.297363,-0.279297
1762435493933595,-4.573171,8.536586,-0.609756,0.908203,0.298340,-0.279785
1762435493943720,-1.219512,0.243902,-1.707317,0.909180,0.299805,-0.278320
1762435493953846,-5.182927,-11.707317,-0.182927,0.908691,0.300293,-0.279297
1762435493963969,-4.756098,-15.365854,0.731707,0.909180,0.300781,-0.277344
1762435493974094,2.256098,-6.219512,-1.768293,0.908691,0.300781,-0.275879
1762435493984219,20.914635,5.670732,-4.451220,0.908691,0.301758,-0.273438
1762435493994343,31.707317,11.280488,-6.036585,0.908691,0.301758,-0.272949
1762435494004468,34.512196,12.865854,-6.890244,0.908203,0.302734,-0.272949
1762435494014593,27.317074,5.060976,-4.573171,0.907227,0.302246,-0.274902
1762435494024719,-0.182927,-8.658537,0.914634,0.907227,0.302734,-0.275391
1762435494034843,-0.365854,-13.048780,1.036585,0.907715,0.303223,-0.275879
1762435494044967,-3.597561,-8.353659,1.585366,0.907227,0.303223,-0.275391
1762435494055092,-3.719512,-3.841464,2.012195,0.907227,0.303223,-0.274902
1762435494065217,6.219512,2.560976,0.121951,0.907227,0.303223,-0.274414
1762435494075342,14.451220,5.731708,-0.182927,0.906738,0.303223,-0.274902
1762435494085467,4.024390,-0.914634,2.134146,0.906250,0.303223,-0.275879
1762435494095594,-6.158537,-6.829268,4.085366,0.906250,0.303223,-0.276855
1762435494105716,-19.817074,-15.792684,7.987805,0.905762,0.303223,-0.278320
1762435494115841,-25.182928,-18.597561,9.207317,0.906250,0.303223,-0.277344
1762435494125966,-8.231708,-12.378049,6.707317,0.906250,0.303711,-0.277344
1762435494136091,-9.329268,-8.719512,6.402439,0.906250,0.303711,-0.277344
1762435494146217,1.036585,-4.878049,3.353659,0.906250,0.303711,-0.276855
1762435494156340,5.243903,-4.451220,1.951220,0.906250,0.303711,-0.278320
1762435494166468,-5.060976,-8.536586,2.804878,0.906250,0.303223,-0.279297
1762435494176590,-2.743902,-6.463415,2.500000,0.906250,0.303223,-0.279297
1762435494186715,-1.524390,-4.390244,2.743902,0.905762,0.303223,-0.279785
1762435494196840,-3.475610,-5.060976,4.024390,0.905273,0.303223,-0.280273
1762435494206965,5.182927,-2.317073,2.865854,0.904785,0.302246,-0.280273
1762435494217090,9.695122,4.268293,2.621951,0.904297,0.300781,-0.282715
1762435494227214,-15.000000,-3.597561,7.378049,0.904785,0.302246,-0.282715
1762435494237339,13.780488,-3.597561,0.426829,0.905273,0.302246,-0.280762
1762435494247463,23.841463,0.121951,-1.890244,0.905273,0.301758,-0.282715
1762435494257588,8.963415,-1.463415,-0.365854,0.905273,0.301270,-0.282715
1762435494267713,27.195122,7.560976,-3.841464,0.905273,0.301270,-0.281738
1762435494277838,39.573174,15.487805,-6.036585,0.904785,0.300781,-0.282715
1762435494287962,27.743902,15.853659,-4.329268,0.904785,0.299805,-0.283691
1762435494298087,30.243904,16.036585,-3.414634,0.904785,0.299805,-0.283691
1762435494308212,31.463415,13.414635,-5.121951,0.904785,0.299316,-0.284180
1762435494318337,44.085365,16.707317,-7.987805,0.905273,0.299316,-0.283203
1762435494328462,50.060978,16.158537,-9.085366,0.905273,0.298340,-0.285156
1762435494338587,29.756098,11.829268,-4.878049,0.906250,0.297852,-0.285645
1762435494348711,44.207317,13.719513,-5.975610,0.906250,0.296875,-0.285156
1762435494358836,36.158539,5.731708,-3.963415,0.905762,0.296387,-0.288086
1762435494368961,10.731708,-4.512195,-0.426829,0.905273,0.295410,-0.288574
1762435494379086,16.158537,-1.097561,-1.158537,0.905273,0.294434,-0.288086
1762435494389211,15.487805,3.597561,-0.060976,0.905273,0.293945,-0.289062
1762435494399335,1.768293,5.426829,1.402439,0.905273,0.292969,-0.289062
1762435494409460,15.487805,15.548780,-0.975610,0.906250,0.292969,-0.287598
1762435494419586,16.402439,15.487805,-1.707317,0.906250,0.292480,-0.289062
1762435494429710,-0.426829,7.500000,0.548781,0.905762,0.291504,-0.289551
1762435494439835,-18.109756,0.670732,2.804878,0.906738,0.291504,-0.290527
1762435494449959,-12.804878,-1.402439,1.524390,0.907227,0.291016,-0.290527
1762435494460084,-13.780488,1.951220,0.060976,0.908203,0.290527,-0.290527
1762435494470209,-30.914635,-0.243902,2.134146,0.908203,0.290527,-0.290527
1762435494480334,-25.426830,2.500000,2.560976,0.908203,0.290039,-0.289062
1762435494490459,-27.012196,1.097561,4.817073,0.907715,0.290039,-0.290039
1762435494500584,-50.182926,-6.097561,7.378049,0.907227,0.290039,-0.289062
1762435494510708,-33.475609,-0.670732,6.524390,0.908203,0.290039,-0.287109
1762435494520833,-26.646341,7.621952,3.902439,0.908691,0.290527,-0.286621
1762435494530958,-27.926830,7.621952,3.780488,0.910156,0.291504,-0.284668
1762435494541083,-9.146341,6.890244,-0.975610,0.910645,0.292969,-0.279785
1762435494551208,12.500000,7.134147,-7.439024,0.910645,0.293945,-0.279785
1762435494561332,17.073172,5.731708,-7.804878,0.910156,0.292480,-0.279785
1762435494571457,9.939025,6.463415,-4.207317,0.909668,0.291016,-0.280273
1762435494581583,-0.304878,3.658537,-1.158537,0.909180,0.291016,-0.279785
1762435494591706,9.329268,-0.121951,-2.378049,0.908691,0.292480,-0.277832
1762435494601831,22.195122,0.487805,-1.829268,0.909180,0.291992,-0.278320
1762435494611957,6.829268,-2.987805,1.341463,0.909668,0.292480,-0.277344
1762435494622081,29.451220,3.719512,-2.500000,0.909668,0.292480,-0.275879
1762435494632206,30.975611,3.353659,-5.487805,0.909180,0.291992,-0.275879
1762435494642330,28.597561,3.414634,-6.036585,0.908691,0.291016,-0.275879
1762435494652456,36.219513,3.536585,-5.792683,0.907715,0.290527,-0.275879
1762435494662580,40.365856,-1.585366,-5.121951,0.905273,0.289551,-0.277344
1762435494672705,-0.609756,-6.036585,3.048780,0.903809,0.287109,-0.278320
1762435494682830,-8.780488,-1.951220,10.548780,0.905273,0.288574,-0.279785
1762435494692954,-4.512195,5.304878,13.475610,0.905762,0.290039,-0.280273
1762435494703079,-31.280489,-3.048780,23.902439,0.907227,0.291016,-0.277832
1762435494713204,-65.853661,-25.914635,31.524391,0.906738,0.293457,-0.277832
1762435494723331,-75.548782,-41.646343,35.243904,0.905762,0.291992,-0.278320
1762435494733453,-74.207321,-34.634148,36.463417,0.905273,0.288574,-0.278809
1762435494743578,-67.439026,-17.682928,33.780487,0.905762,0.287598,-0.276855
1762435494753703,-48.231709,-0.304878,21.280489,0.907715,0.288086,-0.273438
1762435494763828,10.792684,21.402439,2.500000,0.910156,0.289551,-0.272461
1762435494773954,28.231709,24.878050,-8.841464,0.913574,0.288574,-0.272949
1762435494784077,17.804878,14.390244,-8.414635,0.914551,0.287109,-0.278320
1762435494794205,-18.597561,-4.634147,-2.743902,0.914062,0.283691,-0.285645
1762435494804327,-77.378052,-29.573172,5.487805,0.915039,0.283203,-0.288086
1762435494814452,-56.463417,-24.695122,3.658537,0.916016,0.278320,-0.288086
1762435494824576,-76.829269,-15.609756,6.951220,0.916504,0.282715,-0.287109
1762435494834702,-20.975611,-0.670732,-4.024390,0.917480,0.282227,-0.279785
1762435494844827,5.975610,10.243902,-9.817074,0.916992,0.284668,-0.280762
1762435494854951,-33.597561,-10.853659,-0.365854,0.916016,0.284180,-0.283203
1762435494865079,-32.926830,-13.109756,0.975610,0.916016,0.284180,-0.281738
1762435494875201,-16.951220,-12.987805,0.182927,0.915039,0.284668,-0.280273
1762435494885325,-28.048780,-20.792683,1.280488,0.914062,0.283691,-0.280762
1762435494895450,-15.853659,-7.560976,-1.707317,0.913086,0.287109,-0.276855
1762435494905575,42.500000,6.585366,-17.865854,0.913086,0.287109,-0.271973
1762435494915701,81.829269,35.243904,-26.341465,0.913574,0.287598,-0.269043
1762435494925824,117.682930,42.926830,-34.024391,0.912598,0.288086,-0.270996
1762435494935949,96.768295,32.439026,-29.024391,0.913574,0.288574,-0.272461
1762435494946074,98.780487,18.658537,-26.158537,0.913574,0.289062,-0.272949
1762435494956199,84.878052,0.609756,-21.890244,0.912598,0.289551,-0.277344
1762435494966324,54.451221,-5.060976,-12.256098,0.913086,0.289551,-0.276367
1762435494976449,73.170731,2.621951,-8.170732,0.911133,0.289062,-0.277832
1762435494986574,68.719513,17.621952,-6.341464,0.911621,0.289062,-0.275879
1762435494996698,71.463417,26.463415,-4.939024,0.911133,0.289062,-0.279297
1762435495006823,57.195122,18.902439,-2.378049,0.912598,0.288574,-0.279785
1762435495016948,80.243904,19.329269,-3.719512,0.911621,0.286133,-0.284180
1762435495027073,4.329268,-0.914634,5.792683,0.912598,0.284668,-0.290039
1762435495037198,-14.756098,-13.109756,8.536586,0.912598,0.283203,-0.291504
1762435495047322,-32.378048,-26.219513,8.048780,0.911133,0.281738,-0.289551
1762435495057447,10.792684,-5.426829,4.024390,0.909668,0.282227,-0.292969
1762435495067572,-17.500000,6.585366,2.439024,0.909668,0.280762,-0.292480
1762435495077697,-15.731708,10.487805,-4.390244,0.911133,0.285645,-0.282227
1762435495087821,45.975613,23.536587,-18.353659,0.911133,0.285156,-0.284668
1762435495097946,42.317074,27.560976,-18.292683,0.912109,0.285645,-0.286133
1762435495108071,-4.939024,18.780489,-10.609756,0.912109,0.283691,-0.286133
1762435495118196,-1.402439,16.158537,-9.268293,0.911133,0.283203,-0.290527
1762435495128320,-16.951220,1.219512,-0.426829,0.911621,0.283203,-0.294922
1762435495138446,-93.780487,-24.878050,9.390244,0.909668,0.281738,-0.292480
1762435495148570,-53.597561,-16.829269,4.512195,0.908691,0.282227,-0.289062
1762435495158695,-36.097561,-10.182927,0.792683,0.910156,0.284668,-0.285156
1762435495168820,1.707317,10.731708,-5.304878,0.910156,0.285156,-0.282227
1762435495178944,-6.402439,24.268293,-6.158537,0.910156,0.285645,-0.283203
1762435495189069,32.682926,33.536587,-11.097561,0.911133,0.286133,-0.278320
1762435495199194,45.609756,20.243902,-9.817074,0.910156,0.287109,-0.283691
1762435495209319,-15.365854,-13.353659,-0.975610,0.911133,0.285645,-0.286133
1762435495219443,-23.902439,-14.451220,1.768293,0.911133,0.285156,-0.282715
1762435495229568,10.609756,-1.951220,1.402439,0.910156,0.287109,-0.283691
1762435495239693,11.585366,-0.792683,-0.304878,0.910156,0.287598,-0.281738
1762435495249818,55.731709,26.768293,-9.085366,0.911621,0.288574,-0.268555
1762435495259943,122.500000,43.048782,-13.780488,0.910156,0.288574,-0.274414
1762435495270067,50.853661,15.853659,-3.841464,0.909668,0.288574,-0.279297
1762435495280194,55.548782,2.073171,0.182927,0.910156,0.287598,-0.274902
1762435495290317,45.487804,-9.207317,2.134146,0.909668,0.287109,-0.279785
1762435495300442,22.012196,-26.829269,4.207317,0.910156,0.287109,-0.281738
1762435495310566,23.414635,-20.670732,6.036585,0.911133,0.285645,-0.279297
1762435495320691,41.829269,3.597561,-0.060976,0.911133,0.285645,-0.278320
1762435495330816,67.804878,23.780489,-8.536586,0.911621,0.285156,-0.276367
1762435495340941,96.707321,35.548782,-11.463415,0.911621,0.283691,-0.276855
1762435495351068,62.134148,24.146341,-6.402439,0.912109,0.282715,-0.281738
1762435495361190,40.365856,9.695122,-3.353659,0.911621,0.281250,-0.283691
1762435495371315,0.609756,-20.426830,5.121951,0.910645,0.280273,-0.289551
1762435495381440,-55.853661,-42.134148,14.756098,0.910156,0.278809,-0.291016
1762435495391565,-18.963415,-28.902439,6.951220,0.911133,0.277832,-0.286621
1762435495401691,-17.134148,-18.231709,6.463415,0.911133,0.277344,-0.290039
1762435495411814,-35.182926,-11.463415,5.548780,0.910645,0.274902,-0.289551
1762435495421942,6.219512,22.317074,2.378049,0.910645,0.273926,-0.291016
1762435495432064,-27.134148,6.890244,3.292683,0.911133,0.275391,-0.291992
1762435495442189,-34.878048,-9.817074,2.926829,0.911133,0.274902,-0.291992
1762435495452314,-36.707317,-15.670732,3.414634,0.910645,0.274414,-0.295410
1762435495462438,-66.341461,-25.426830,10.487805,0.910645,0.271484,-0.297852
1762435495472564,-77.621956,-8.780488,17.195122,0.909668,0.272949,-0.298340
1762435495482688,-39.329269,-10.000000,5.975610,0.911133,0.273926,-0.290527
1762435495492813,-6.402439,0.670732,0.182927,0.911621,0.274414,-0.290039
1762435495502937,-2.073171,4.451220,-4.329268,0.912109,0.274902,-0.293457
1762435495513062,-5.426829,3.353659,-4.939024,0.914062,0.276855,-0.292480
1762435495523187,35.121952,5.060976,-4.512195,0.913086,0.272461,-0.293945
1762435495533312,-23.536587,-16.585365,8.597561,0.910645,0.269043,-0.306152
1762435495543437,-105.548782,-41.524391,25.487806,0.908691,0.273438,-0.305664
1762435495553561,-55.060978,-47.073174,4.085366,0.912109,0.276855,-0.289062
1762435495563686,61.036587,-2.012195,-10.609756,0.909668,0.275879,-0.290039
1762435495573812,38.292683,17.743902,-8.048780,0.909180,0.275879,-0.292969
1762435495583937,58.048782,45.243904,-9.451220,0.908691,0.275391,-0.287109
1762435495594061,81.097565,56.951221,-11.158537,0.907227,0.274414,-0.291504
1762435495604186,18.719513,1.951220,2.743902,0.906250,0.274902,-0.301758
1762435495614310,-50.426830,-39.695122,16.463415,0.906738,0.274414,-0.302246
1762435495624435,-39.695122,-48.963417,13.658537,0.907227,0.274414,-0.301758
1762435495634560,-32.804878,-31.463415,10.792684,0.907227,0.274414,-0.299805
1762435495644686,-4.817073,-3.597561,4.878049,0.908203,0.274902,-0.299316
1762435495654809,1.219512,20.853659,2.378049,0.907227,0.273926,-0.297363
1762435495664934,53.597561,52.743904,-6.890244,0.908691,0.273926,-0.294922
1762435495675059,22.987806,36.280487,-5.853659,0.908691,0.275391,-0.304688
1762435495685184,-84.207321,-14.329268,13.353659,0.909180,0.275391,-0.307129
1762435495695309,-66.829269,-29.817074,13.475610,0.910156,0.275879,-0.304688
1762435495705433,-74.817078,-26.646341,13.719513,0.910645,0.275879,-0.307129
1762435495715558,-105.426834,-19.695122,21.158537,0.911133,0.273926,-0.308105
1762435495725683,-87.134148,7.500000,22.317074,0.909668,0.275391,-0.305664
1762435495735808,-65.365852,9.085366,12.926829,0.912109,0.277344,-0.300293
1762435495745933,-93.597565,-0.731707,10.914635,0.911621,0.278809,-0.301270
1762435495756057,-71.951218,-8.109756,7.865854,0.911621,0.279297,-0.300781
1762435495766183,-72.560974,-18.414635,10.609756,0.913574,0.280762,-0.299316
1762435495776307,-95.000000,-7.865854,12.012196,0.916992,0.282227,-0.297852
1762435495786432,-81.463417,11.280488,9.939025,0.920898,0.285645,-0.294434
1762435495796557,-27.682928,37.317074,5.609756,0.924316,0.287598,-0.291016
1762435495806681,-14.390244,34.268295,-2.073171,0.929688,0.291504,-0.289062
1762435495816806,-24.878050,25.975611,-7.012195,0.933594,0.289551,-0.286621
1762435495826931,-0.670732,30.975611,-10.304878,0.933594,0.288574,-0.293457
1762435495837057,-23.170732,29.512196,-3.597561,0.935547,0.282227,-0.300293
1762435495847181,-27.134148,47.317074,0.182927,0.937500,0.273926,-0.303711
1762435495857306,-61.707317,49.085365,10.304878,0.937500,0.265625,-0.305176
1762435495867430,-89.146347,46.036587,19.207317,0.937012,0.259766,-0.308105
1762435495877555,-100.731712,48.597561,19.451220,0.937012,0.257324,-0.308105
1762435495887680,-68.231712,49.146343,9.451220,0.931641,0.254395,-0.307129
1762435495897804,-46.585365,55.731709,-0.731707,0.929199,0.250977,-0.304688
1762435495907932,1.402439,71.402443,-13.231708,0.936035,0.253906,-0.303223
1762435495918054,33.231709,86.097565,-24.878050,0.951172,0.253418,-0.293945
1762435495928179,130.060974,83.963417,-41.890244,0.964355,0.256836,-0.284180
1762435495938304,207.560974,61.463417,-51.158539,0.979004,0.246094,-0.284180
1762435495948428,65.182930,31.707317,-22.682928,0.987793,0.218262,-0.290527
1762435495958554,-204.878052,0.000000,79.207321,0.994141,0.208984,-0.285645
1762435495968678,-1249.024414,-108.231712,137.987808,0.979492,0.301758,-0.177734
1762435495978805,1440.000000,334.329285,-180.060974,0.983887,0.181641,-0.251465
1762435495988928,-393.841461,49.756100,27.195122,0.968750,0.223145,-0.358398
1762435495999053,-969.817078,-59.268295,49.451221,0.948730,0.202637,-0.369141
1762435496009177,-373.658539,-140.609756,17.621952,1.007812,0.214355,-0.350586
1762435496019302,102.073174,-149.695129,-82.987808,1.048828,0.236816,-0.297852
1762435496029428,207.682938,-172.073181,-103.719513,1.044922,0.249023,-0.273438
1762435496039552,254.329269,-57.865856,-156.097565,1.021973,0.291016,-0.291016
1762435496049676,449.268311,34.878048,-233.536591,0.968750,0.323242,-0.205566
1762435496059801,630.853699,170.304886,-226.463425,0.925781,0.346680,-0.104492
1762435496069926,727.500000,105.365860,-231.097565,0.888672,0.317383,-0.170898
1762435496080051,697.073181,72.012199,-292.865875,0.897949,0.326172,-0.207520
1762435496090176,262.743896,26.097561,-187.987808,0.951660,0.250977,-0.185547
1762435496100300,202.743912,-9.634147,-161.036591,0.943848,0.294922,-0.184082
1762435496110431,-10.121951,59.573174,-130.365860,0.928223,0.259766,-0.267090
1762435496120550,-542.804871,115.426834,-72.682930,0.921875,0.295410,-0.243164
1762435496130675,-1071.158569,115.182930,-65.914635,1.011230,0.319336,-0.264648
1762435496140799,-452.073181,19.817074,-166.524399,1.017090,0.314453,-0.284668
1762435496150924,81.341469,-240.792694,-162.865860,1.094727,0.304688,-0.228516
1762435496161049,-1175.243896,132.621948,64.817078,0.994629,0.287598,-0.228516
1762435496171174,-504.207336,186.341461,-158.048782,0.936523,0.353027,-0.283203
1762435496181298,-774.939026,29.146341,-92.682930,0.884277,0.358887,-0.270020
1762435496191423,-992.500000,127.317078,-64.451218,0.851562,0.330566,-0.165039
1762435496201549,-824.024414,238.963425,-15.426829,0.887207,0.394043,-0.132324
1762435496211673,-475.548798,122.500000,-29.329269,0.883789,0.390625,-0.143066
1762435496221798,489.207336,-29.390245,-140.243912,0.868164,0.400879,-0.124512
1762435496231923,127.134148,-15.731708,-65.243904,0.838379,0.384766,-0.077148
1762435496242047,126.829269,-52.195122,-32.195122,0.775879,0.407715,-0.044434
1762435496252172,-609.512207,-43.841465,-62.256100,0.777344,0.448242,-0.053223
1762435496262297,-261.951233,3.292683,-70.121956,0.753418,0.426758,0.000488
1762435496272422,-380.731720,156.158539,11.402439,0.727539,0.451660,0.063965
1762435496282547,26.036587,70.853661,-30.000000,0.742188,0.507812,0.071289
1762435496292671,-81.463417,45.365856,36.219513,0.720215,0.473145,0.124512
1762435496302796,672.987793,157.621948,30.548780,0.724609,0.489258,0.164062
1762435496312921,1015.121948,131.341461,42.378048,0.729492,0.484375,0.167969
1762435496323046,425.731720,168.902451,29.634148,0.707031,0.521973,0.137207
1762435496333171,856.829285,-18.231709,-17.500000,0.697754,0.564453,0.089355
1762435496343296,-370.121948,94.939026,-54.634148,0.716797,0.568848,0.085938
1762435496353420,-1264.756104,65.060974,-79.329269,0.702637,0.590332,0.125977
1762435496363545,-281.402435,13.841464,-43.475613,0.709473,0.575684,0.173828
1762435496373670,-86.219513,5.792683,-14.268293,0.671875,0.599121,0.192383
1762435496383794,185.914642,40.365856,9.207317,0.669434,0.558594,0.233398
1762435496393920,296.463409,83.719513,53.536587,0.647949,0.584961,0.261230
1762435496404044,-41.707317,132.012192,-3.658537,0.665039,0.609863,0.266602
1762435496414169,-510.792694,100.243904,-62.804878,0.661621,0.656738,0.253418
1762435496424294,-768.292725,-139.939026,-93.536591,0.542969,0.678223,0.262695
1762435496434418,-385.975616,-46.707317,21.585367,0.574707,0.575195,0.315430
1762435496444543,-1074.451294,-168.048782,22.743902,0.582031,0.620117,0.226562
1762435496454668,-1997.926880,-959.268311,11.768293,0.624512,0.576660,0.094727
1762435496464794,-1211.341553,-145.487808,45.243904,0.647949,0.456543,0.255859
1762435496474918,844.573181,-6.646342,-28.048780,0.765625,0.390137,0.389648
1762435496485042,719.512207,-60.853661,-20.365854,0.745605,0.459473,0.338867
1762435496495167,-92.926834,-66.280487,7.987805,0.706543,0.367188,0.257812
1762435496505292,387.195129,99.390244,-65.060974,0.807129,0.363770,0.292969
1762435496515417,151.707321,218.414642,-42.317074,0.827148,0.383301,0.361816
1762435496525541,940.121948,58.536587,-108.292686,0.778809,0.393066,0.431152
1762435496535668,-477.439026,6.951220,46.219513,0.591797,0.382324,0.474121
1762435496545791,-256.890259,123.841469,-22.743902,0.592773,0.453613,0.490234
1762435496555916,122.865860,-20.670732,-53.231709,0.610840,0.394043,0.513672
1762435496566041,-254.634155,28.841465,46.036587,0.624023,0.424805,0.503906
1762435496576165,43.475613,-62.560978,-49.939026,0.621094,0.424316,0.501953
1762435496586291,-275.914642,0.060976,27.500000,0.627930,0.396973,0.551758
1762435496596415,189.207321,85.000000,-25.121952,0.643555,0.439941,0.568359
1762435496606542,248.536591,31.463415,-13.841464,0.667969,0.382812,0.579590
1762435496616664,-7.012195,30.426830,61.341465,0.658691,0.403809,0.562012
1762435496626789,-7.134147,-14.817074,-12.926829,0.620605,0.430176,0.543457
1762435496636914,-43.658539,-58.170734,-13.231708,0.599609,0.400879,0.569336
1762435496647039,-123.719513,-17.317074,35.487804,0.591797,0.410645,0.602539
1762435496657165,58.475613,112.926834,0.670732,0.599609,0.420898,0.616211
1762435496667288,79.512199,68.170731,-4.878049,0.598633,0.406738,0.615723
1762435496677413,-31.036587,39.268295,18.597561,0.595215,0.404297,0.606445
1762435496687538,-4.573171,2.987805,15.304878,0.596680,0.402832,0.611816
1762435496697663,14.878049,-30.426830,23.841463,0.596680,0.394043,0.619629
1762435496707788,-130.426834,1.341463,28.292683,0.604492,0.396973,0.621094
1762435496717912,-66.402443,-8.292683,5.792683,0.604004,0.389648,0.623047
1762435496728037,-196.036591,1.158537,30.731709,0.605957,0.378906,0.627930
1762435496738162,-208.719513,-22.743902,27.317074,0.604492,0.386719,0.632324
1762435496748287,-89.695122,-74.451218,13.414635,0.617676,0.387207,0.663574
1762435496758412,-31.097561,-40.121952,39.878048,0.630371,0.376465,0.711914
1762435496768536,-14.695123,64.817078,41.585365,0.634277,0.379395,0.734375
1762435496778661,294.939026,28.231709,0.731707,0.644531,0.371582,0.731445
1762435496788786,230.548782,52.195122,12.439025,0.654297,0.344238,0.704102
1762435496798911,-152.439026,87.256096,28.414635,0.644531,0.342773,0.666992
1762435496809036,5.365854,-71.097565,-29.390245,0.619141,0.340332,0.654785
1762435496819160,-99.756104,-88.902443,-2.256098,0.602539,0.311523,0.665527
1762435496829285,-70.609756,-71.768295,34.451221,0.605469,0.297852,0.677246
1762435496839410,-166.036591,-44.085365,18.719513,0.599609,0.307129,0.659180
1762435496849535,-148.475616,-5.182927,18.292683,0.633301,0.299316,0.646484
1762435496859660,-137.439026,-158.719513,-10.914635,0.585938,0.318359,0.641602
1762435496869784,7.317073,-211.951218,26.219513,0.604004,0.288574,0.690918
1762435496879909,-136.646347,-291.951233,89.695122,0.628906,0.285645,0.692383
1762435496890034,-139.085373,166.158539,75.182930,0.649414,0.302246,0.659668
1762435496900159,-44.207317,-353.109772,0.304878,0.662109,0.275391,0.634766
1762435496910284,-391.524414,165.853668,117.865860,0.667969,0.222168,0.647949
1762435496920408,-878.658569,-224.024399,163.963425,0.678711,0.221191,0.614258
1762435496930533,-714.939026,205.000000,153.658539,0.661621,0.238770,0.548828
1762435496940658,20.731709,-381.890259,-89.207321,0.677734,0.236328,0.649414
1762435496950782,178.292694,-842.682922,-321.890259,0.706055,0.282227,0.733887
1762435496960907,1260.365845,-654.268311,-379.573181,0.782227,0.204102,0.669434
1762435496971032,-172.073181,-228.536591,-203.475616,0.751465,0.159668,0.726074
1762435496981157,157.926834,-307.439026,-104.207321,0.753906,0.124023,0.711914
1762435496991282,-146.036591,-161.036591,33.658539,0.770996,0.099609,0.730957
1762435497001407,-66.707321,36.402439,104.756104,0.778809,0.092773,0.740723
1762435497011532,-242.682938,-39.512196,124.756104,0.784180,0.113281,0.695312
1762435497021656,143.048782,-16.402439,25.304878,0.789551,0.115723,0.679688
1762435497031781,-151.707321,-93.719513,35.243904,0.788574,0.116699,0.634766
1762435497041906,-41.036587,-50.975613,-20.426830,0.797363,0.125488,0.596680
1762435497052031,186.768295,-166.707321,-94.695122,0.819336,0.134766,0.549316
1762435497062155,81.585365,-250.609756,-111.036591,0.843750,0.125000,0.483398
1762435497072280,-103.780487,-215.487808,-83.353661,0.839355,0.121094,0.415527
1762435497082405,-45.914635,-259.695129,-109.512199,0.832031,0.124023,0.393555
1762435497092531,-125.853661,-278.902435,-75.182930,0.848145,0.119629,0.401367
1762435497102655,-95.792686,-223.780487,-31.341465,0.856445,0.114258,0.370117
1762435497112780,-225.792694,-362.012207,51.951221,0.866211,0.116699,0.378418
1762435497122904,-174.268295,-345.975616,47.134148,0.885742,0.143555,0.371094
1762435497133029,19.024391,-320.426849,-34.573170,0.896484,0.164551,0.310547
1762435497143154,-32.621952,-236.890244,-34.573170,0.899414,0.158691,0.265625
1762435497153278,-139.146347,-215.731720,10.487805,0.915039,0.154297,0.286133
1762435497163405,-63.597561,-186.646347,18.109756,0.919434,0.161621,0.274902
1762435497173528,-97.317078,-21.463415,35.548782,0.915527,0.160645,0.251953
1762435497183653,-180.182938,237.134155,54.695122,0.924316,0.178223,0.288086
1762435497193778,-24.573172,453.719513,18.292683,0.940918,0.194824,0.322754
1762435497203903,68.170731,1054.329346,-17.378050,0.958984,0.213867,0.342773
1762435497214028,-419.512207,1046.463379,5.609756,0.985840,0.147461,0.259766
1762435497224152,-325.243896,1091.829346,259.390259,0.962402,0.092285,0.446777
1762435497234279,-276.158539,719.512207,325.853668,1.035645,0.124023,0.344727
1762435497244402,-723.475647,1004.695129,209.817078,0.983398,0.120605,0.279297
1762435497254526,-397.865875,6.585366,83.780487,1.039062,0.201660,0.102051
1762435497264651,262.804871,-29.573172,-69.146339,1.053711,0.214844,0.154297
1762435497274780,196.524399,8.536586,-100.792686,1.023926,0.152832,0.251465
1762435497284901,-100.548782,57.256100,17.317074,1.015137,0.136230,0.246094
1762435497295025,45.365856,73.536591,2.134146,0.996582,0.118652,0.300781
1762435497305153,-100.487808,11.280488,32.378048,0.989746,0.118652,0.312012
1762435497315275,-237.256104,-53.170734,27.987806,0.974121,0.064453,0.313477
1762435497325400,-812.682922,88.841469,46.219513,0.944336,0.085449,0.397461
1762435497335525,114.329269,80.670731,-9.573171,0.955566,0.079102,0.375488
1762435497345649,282.560974,71.097565,-17.378050,0.945801,0.069336,0.410156
1762435497355776,31.463415,65.609756,14.512196,0.925781,0.035645,0.457520
1762435497365899,-150.000000,117.621956,2.804878,0.908691,0.008789,0.467285
1762435497376025,8.902439,70.060974,-1.219512,0.908203,0.041016,0.491699
1762435497386148,64.817078,59.512196,-39.512196,0.889648,-0.004883,0.501465
1762435497396273,-81.036591,18.536587,-10.000000,0.887695,0.006348,0.520020
1762435497406398,-6.524390,10.000000,-38.109756,0.870605,-0.008301,0.533691
1762435497416523,112.256104,46.646343,-48.780487,0.859863,-0.028320,0.555664
1762435497426648,-107.865860,-2.378049,15.243903,0.847656,-0.056152,0.553223
1762435497436773,-142.378052,-8.292683,10.853659,0.836426,-0.042969,0.586914
1762435497446897,32.317074,49.085365,-26.402439,0.820801,-0.057617,0.590332
1762435497457023,-117.195122,-4.817073,5.914634,0.813477,-0.071777,0.581055
1762435497467147,-62.500000,10.243902,-4.329268,0.797852,-0.060059,0.610840
1762435497477272,-51.280491,44.207317,-23.231709,0.787598,-0.074707,0.608398
1762435497487397,-33.048782,37.560978,-16.036585,0.777832,-0.068359,0.614746
1762435497497522,-74.207321,62.500000,-2.317073,0.764648,-0.085449,0.628906
1762435497507646,-89.756104,50.243904,-0.365854,0.768555,-0.081055,0.640625
1762435497517771,26.402439,15.060976,0.060976,0.759277,-0.084961,0.646973
1762435497527897,-84.817078,7.987805,17.743902,0.743164,-0.105469,0.667969
1762435497538021,-167.378052,36.280487,41.768295,0.733398,-0.093750,0.664062
1762435497548145,8.597561,35.243904,19.024391,0.725586,-0.109863,0.685547
1762435497558270,-157.865860,12.682927,37.073174,0.727051,-0.119141,0.688477
1762435497568395,-70.853661,-7.926829,23.597561,0.714844,-0.126465,0.698242
1762435497578520,-83.414635,7.317073,17.865854,0.709473,-0.133301,0.697754
1762435497588645,-75.670731,20.182928,5.609756,0.701172,-0.145996,0.706055
1762435497598769,73.963417,22.682928,-16.585365,0.694824,-0.144043,0.699707
1762435497608894,100.853661,-1.524390,-16.951220,0.691406,-0.155762,0.685059
1762435497619019,81.280487,0.487805,-12.012196,0.677734,-0.163574,0.708008
1762435497629144,1.524390,37.560978,-3.963415,0.667480,-0.175293,0.713379
1762435497639268,-70.182930,33.658539,13.780488,0.661621,-0.185547,0.711426
1762435497649394,-103.841469,35.304878,23.536587,0.656250,-0.183105,0.711914
1762435497659518,-74.573174,38.719513,24.329269,0.650879,-0.188965,0.717285
1762435497669643,-80.121956,28.780489,25.487806,0.648926,-0.192383,0.727051
1762435497679768,-29.512196,40.670734,8.048780,0.648926,-0.196777,0.741211
1762435497689892,-42.926830,12.560976,8.719512,0.646973,-0.214355,0.752930
1762435497700017,5.487805,-0.243902,-5.000000,0.646484,-0.215332,0.767090
1762435497710142,-12.195122,-12.500000,-15.304878,0.644043,-0.229492,0.775879
1762435497720268,-57.195122,-22.378050,-17.073172,0.641602,-0.236328,0.774902
1762435497730392,-53.353661,-10.365854,-15.243903,0.631348,-0.229004,0.743652
1762435497740516,109.878052,-19.451220,-18.780489,0.637695,-0.226562,0.733887
1762435497750641,47.621952,-14.512196,-1.097561,0.623535,-0.234375,0.743164
1762435497760766,22.134148,26.829269,9.512196,0.609375,-0.235840,0.732910
