Timestamp (us),Gyroscope X (deg/s),Gyroscope Y (deg/s),Gyroscope Z (deg/s),Accelerometer X (g),Accelerometer Y (g),Accelerometer Z (g)
65799830,-18.292683,3.170732,6.524390,0.617188,-0.265137,0.740234
1762435482297878,-17.804878,4.451220,6.219512,0.619629,-0.264648,0.739258
1762435482307793,-20.487804,6.646342,6.829268,0.621582,-0.263672,0.738281
1762435482317707,-25.182928,9.390244,8.292683,0.624023,-0.262695,0.737793
1762435482327623,-30.243904,11.768293,9.695122,0.625488,-0.263672,0.736816
1762435482337538,-30.609756,13.536586,9.573171,0.626465,-0.266602,0.735840
1762435482347453,-26.829269,14.878049,8.231708,0.626953,-0.270508,0.734863
1762435482357368,-22.926830,15.609756,6.890244,0.626953,-0.273926,0.733887
1762435482367283,-17.439024,15.365854,5.792683,0.627441,-0.277344,0.733398
1762435482377198,-14.512196,14.573171,5.426829,0.627930,-0.279785,0.732910
1762435482387113,-10.731708,12.439025,5.000000,0.627930,-0.283203,0.731934
1762435482397027,-3.841464,10.365854,2.073171,0.627930,-0.288086,0.731445
1762435482406943,6.280488,8.658537,-0.426829,0.627441,-0.292969,0.731445
1762435482416857,14.329268,7.012195,-1.097561,0.626953,-0.294922,0.731445
1762435482426772,18.170732,6.341464,-2.560976,0.625977,-0.294922,0.730469
1762435482436688,20.304878,3.902439,-3.658537,0.624023,-0.296875,0.728516
1762435482446602,22.926830,1.585366,-3.902439,0.624023,-0.300781,0.727539
1762435482456518,29.512196,0.853659,-2.804878,0.622070,-0.309082,0.725098
1762435482466432,35.487804,-1.829268,6.036585,0.618164,-0.316895,0.720215
1762435482476347,32.500000,-11.463415,22.256098,0.616211,-0.320801,0.717285
1762435482486262,27.439026,-18.963415,34.939026,0.619141,-0.319336,0.719238
1762435482496177,16.463415,-18.597561,43.963417,0.623535,-0.310547,0.723633
1762435482506092,7.317073,-16.707317,43.841465,0.627441,-0.299316,0.728027
1762435482516007,7.195122,-13.963415,30.548780,0.630371,-0.286133,0.732422
1762435482525921,6.036585,-9.085366,13.780488,0.632324,-0.273438,0.736328
1762435482535837,2.134146,-4.939024,1.524390,0.632324,-0.264648,0.738281
1762435482545752,-3.536585,-3.170732,-2.500000,0.630371,-0.261230,0.739258
1762435482555666,-8.841464,-2.621951,-0.792683,0.628906,-0.260254,0.739258
1762435482565581,-13.109756,-2.195122,2.378049,0.628418,-0.262695,0.738770
1762435482575496,-12.926829,-0.182927,2.317073,0.628418,-0.265137,0.738770
1762435482585411,-13.048780,3.841464,2.195122,0.629395,-0.268066,0.738770
1762435482595326,-10.121951,13.841464,-0.182927,0.628906,-0.271484,0.738770
1762435482605241,2.865854,31.097561,-12.073171,0.626953,-0.268555,0.737793
1762435482615156,0.609756,40.975609,-21.219513,0.623047,-0.262695,0.735840
1762435482625071,-13.109756,41.158539,-16.585365,0.621094,-0.263672,0.736328
1762435482634986,-15.060976,40.853661,-10.121951,0.620605,-0.265625,0.736816
1762435482644901,-14.634147,33.109756,-9.085366,0.622070,-0.267578,0.740234
1762435482654816,-13.963415,28.353659,-6.890244,0.622559,-0.269043,0.741699
1762435482664730,-14.024390,20.609756,-8.658537,0.620605,-0.270020,0.741699
1762435482674646,-16.219513,13.475610,-5.304878,0.620117,-0.274902,0.743164
1762435482684561,-11.097561,10.731708,-3.170732,0.621582,-0.280762,0.746094
1762435482694475,-7.378049,6.463415,-1.768293,0.620117,-0.283203,0.747070
1762435482704391,-6.890244,2.500000,-0.243902,0.618652,-0.284668,0.747070
1762435482714305,-6.585366,1.646342,0.304878,0.617676,-0.285156,0.748535
1762435482724220,-4.939024,1.890244,-0.426829,0.615723,-0.285645,0.749023
1762435482734135,-3.963415,1.158537,-0.609756,0.615234,-0.285645,0.750488
1762435482744051,-3.658537,0.914634,-0.487805,0.614258,-0.286621,0.751465
1762435482753965,-2.560976,0.975610,-0.060976,0.612793,-0.286133,0.751953
1762435482763880,-3.475610,1.036585,0.792683,0.611328,-0.284668,0.752930
1762435482773795,-5.365854,0.792683,1.402439,0.609375,-0.284180,0.752930
1762435482783710,-5.426829,0.060976,1.036585,0.607910,-0.284180,0.753418
1762435482793625,-4.146341,-0.365854,0.243902,0.606934,-0.285645,0.753906
1762435482803540,-2.865854,-0.548781,-0.243902,0.606445,-0.287109,0.753906
1762435482813454,-1.402439,-0.792683,-0.487805,0.606445,-0.288086,0.754883
1762435482823369,-2.317073,-0.914634,0.121951,0.605957,-0.288086,0.755371
1762435482833284,-3.414634,-0.853659,1.097561,0.605957,-0.287109,0.756348
1762435482853114,-5.548780,-1.219512,2.682927,0.604492,-0.286621,0.757324
1762435482863029,-7.195122,-1.036585,2.865854,0.604004,-0.286621,0.757812
1762435482872945,-7.012195,-0.487805,2.621951,0.603027,-0.286621,0.757812
1762435482882859,-4.451220,-0.060976,0.060976,0.603027,-0.285156,0.757812
1762435482892774,-3.719512,0.975610,-3.292683,0.602539,-0.284668,0.758301
1762435482902690,-3.597561,2.500000,-4.939024,0.602539,-0.284668,0.758789
1762435482912604,-0.365854,6.280488,-8.048780,0.602051,-0.286133,0.757812
1762435482922519,0.609756,12.195122,-7.865854,0.601074,-0.286621,0.757324
1762435482932434,1.951220,19.146341,-8.170732,0.598145,-0.286621,0.755859
1762435482942349,1.829268,21.524391,-9.512196,0.595703,-0.283691,0.754883
1762435482952263,-4.024390,23.292683,-8.414635,0.595215,-0.281250,0.756348
1762435482962180,-6.951220,24.146341,-8.109756,0.595703,-0.280762,0.758789
1762435482972093,-7.073171,22.743902,-8.597561,0.596191,-0.280762,0.761230
1762435482982008,-5.304878,19.878050,-9.939025,0.595703,-0.281250,0.762695
1762435482991923,-4.939024,15.304878,-9.512196,0.594727,-0.282715,0.763184
1762435483001837,-5.609756,9.390244,-6.463415,0.593262,-0.284180,0.763672
1762435483011754,-7.500000,4.390244,-2.378049,0.591797,-0.285645,0.764160
1762435483021668,-8.414635,2.682927,-0.609756,0.590820,-0.285156,0.765137
1762435483031583,-10.853659,2.804878,-0.853659,0.589844,-0.283691,0.765137
1762435483041498,-11.768293,4.085366,-3.109756,0.587891,-0.282227,0.764648
1762435483051413,-15.914635,9.268293,-3.902439,0.585449,-0.280273,0.763672
1762435483061328,-18.780489,13.902439,-4.634147,0.582520,-0.280762,0.762695
1762435483071242,-17.621952,14.451220,-4.817073,0.582520,-0.283203,0.764160
1762435483081157,-13.048780,14.512196,-4.268293,0.583496,-0.286621,0.767578
1762435483091072,-9.695122,13.597561,-3.414634,0.583496,-0.288574,0.769531
1762435483100987,-6.829268,10.731708,-4.085366,0.582520,-0.290039,0.770508
1762435483110902,-5.975610,8.536586,-4.024390,0.582031,-0.291992,0.770996
1762435483120818,-3.658537,6.890244,-3.475610,0.582031,-0.294434,0.772461
1762435483130732,-2.560976,4.451220,-1.829268,0.581543,-0.296387,0.772949
1762435483140647,-0.731707,1.768293,-0.426829,0.581055,-0.297852,0.773926
1762435483150562,1.402439,0.731707,-0.792683,0.580566,-0.297852,0.774902
1762435483160476,2.560976,-0.182927,-1.219512,0.579590,-0.297363,0.775879
1762435483170392,2.804878,-1.158537,-0.853659,0.578613,-0.296387,0.777344
1762435483180307,2.926829,-2.134146,-0.426829,0.577148,-0.295410,0.777832
1762435483190222,2.804878,-3.231707,-0.121951,0.576660,-0.293945,0.778809
1762435483200137,2.743902,-4.085366,-0.670732,0.576172,-0.294434,0.779297
1762435483210052,6.646342,-4.878049,-2.804878,0.576660,-0.296875,0.779785
1762435483219967,11.341464,-6.280488,-4.573171,0.576172,-0.299316,0.779297
1762435483229881,13.780488,-8.414635,-4.085366,0.575195,-0.302734,0.777344
1762435483239797,18.170732,-10.060976,-4.085366,0.575195,-0.307617,0.775879
1762435483249712,19.939024,-13.780488,1.097561,0.576172,-0.313965,0.773926
1762435483259626,17.743902,-20.426830,10.914635,0.576660,-0.319336,0.770996
1762435483269542,12.804878,-29.085367,23.231709,0.577637,-0.324219,0.767578
1762435483289371,8.170732,-45.365856,44.329269,0.580078,-0.328125,0.763184
1762435483299286,7.012195,-48.902439,49.878052,0.581055,-0.325195,0.762207
1762435483309201,8.902439,-47.134148,49.085365,0.582520,-0.322266,0.762207
1762435483319116,15.426829,-42.317074,41.951221,0.583008,-0.316895,0.762695
1762435483329031,17.987804,-34.390244,33.658539,0.584473,-0.308105,0.764648
1762435483338946,16.585365,-26.219513,25.548780,0.584473,-0.298828,0.766602
1762435483348860,16.158537,-19.451220,18.536587,0.584473,-0.291016,0.769043
1762435483358775,16.280489,-14.268293,13.353659,0.585938,-0.283203,0.771484
1762435483368691,12.804878,-10.243902,8.780488,0.587402,-0.274902,0.773926
1762435483378605,8.597561,-7.439024,4.268293,0.588379,-0.270020,0.774902
1762435483388520,8.231708,-5.365854,0.182927,0.588867,-0.269043,0.774902
1762435483398435,10.609756,-4.695122,-1.402439,0.590332,-0.269531,0.773438
1762435483408350,9.512196,-4.939024,0.731707,0.591797,-0.268555,0.772461
1762435483418265,1.280488,-6.036585,5.000000,0.593750,-0.266602,0.770996
1762435483428180,-4.939024,-7.439024,7.804878,0.595703,-0.268066,0.769531
1762435483438094,-4.024390,-8.475610,8.597561,0.597168,-0.271484,0.767578
1762435483448011,1.219512,-8.414635,7.865854,0.597656,-0.274414,0.765625
1762435483457925,3.841464,-7.134147,7.317073,0.597656,-0.276855,0.764160
1762435483467840,7.195122,-6.036585,7.134147,0.598145,-0.278809,0.762695
1762435483477755,9.695122,-5.121951,6.585366,0.598633,-0.280273,0.761719
1762435483487670,11.890244,-4.268293,5.975610,0.599609,-0.281250,0.760742
1762435483497585,11.463415,-3.414634,5.975610,0.600586,-0.280762,0.759766
1762435483507500,9.817074,-3.597561,6.402439,0.602539,-0.280273,0.759277
1762435483517414,6.951220,-5.000000,7.317073,0.604492,-0.279785,0.758789
1762435483527329,4.573171,-7.012195,9.024390,0.605469,-0.279785,0.758301
1762435483537244,2.439024,-9.268293,11.646341,0.605957,-0.278809,0.757324
1762435483547159,-0.548781,-10.426829,13.414635,0.606445,-0.277832,0.756836
1762435483557074,-1.219512,-10.487805,13.719513,0.605957,-0.277344,0.756836
1762435483566989,0.426829,-9.573171,12.317074,0.606445,-0.277832,0.756348
1762435483576904,2.439024,-8.048780,10.182927,0.606445,-0.277344,0.756348
1762435483586819,4.695122,-6.463415,7.073171,0.607422,-0.277832,0.755859
1762435483596733,7.317073,-5.304878,4.268293,0.607910,-0.279785,0.754883
1762435483606649,10.914635,-5.121951,1.768293,0.608887,-0.282227,0.753906
1762435483616564,16.768293,-5.000000,-0.548781,0.609375,-0.285156,0.752930
1762435483626479,14.695123,-5.792683,2.195122,0.610352,-0.284180,0.750977
1762435483636393,10.853659,-10.182927,8.536586,0.612793,-0.289551,0.750000
1762435483646308,18.292683,-14.268293,11.768293,0.612305,-0.290527,0.747559
1762435483656224,21.341463,-16.524391,13.353659,0.612793,-0.290039,0.747070
1762435483666138,27.439026,-16.341463,11.890244,0.613281,-0.291016,0.747070
1762435483676053,45.853661,-14.634147,5.060976,0.612793,-0.292969,0.747070
1762435483685968,65.731712,-12.621951,-1.402439,0.612793,-0.293457,0.746582
1762435483695883,73.475609,-11.280488,-3.048780,0.613770,-0.287598,0.747070
1762435483705798,65.914635,-9.085366,-2.865854,0.614746,-0.277832,0.748047
1762435483715713,56.890244,-7.439024,-3.780488,0.617188,-0.275879,0.749023
1762435483725628,76.768295,-6.890244,-5.731708,0.618652,-0.295898,0.747559
1762435483735543,69.695122,-16.036585,34.268295,0.609863,-0.329102,0.729980
1762435483745458,101.097565,-52.560978,77.987808,0.599609,-0.354492,0.708984
1762435483755373,135.548782,-78.597565,62.439026,0.599609,-0.321777,0.706543
1762435483765288,112.256104,-61.036587,26.646341,0.611328,-0.267578,0.722168
1762435483775203,78.475609,-28.048780,2.195122,0.626953,-0.245605,0.740723
1762435483785117,71.768295,-8.597561,3.536585,0.634766,-0.253418,0.744629
1762435483795032,87.012199,-17.560976,20.609756,0.631836,-0.262207,0.736328
1762435483804948,91.768295,-31.951220,28.719513,0.631348,-0.244629,0.732910
1762435483814862,74.756096,-24.451220,20.304878,0.636230,-0.217773,0.738770
1762435483824777,60.182930,-11.829268,10.548780,0.639648,-0.201660,0.741699
1762435483834692,54.024391,-9.878049,9.756098,0.641113,-0.190430,0.740723
1762435483844608,45.426830,-11.341464,10.426829,0.643555,-0.174316,0.740723
1762435483854523,37.012196,-7.804878,3.780488,0.651367,-0.154297,0.747559
1762435483864438,19.085367,-3.902439,1.097561,0.655273,-0.147461,0.750000
1762435483874352,15.365854,-4.512195,2.500000,0.656250,-0.145508,0.749512
1762435483884267,13.231708,-4.207317,1.646342,0.657227,-0.142578,0.749512
1762435483894182,13.658537,-2.926829,-0.304878,0.658203,-0.143066,0.749512
1762435483904097,17.012196,-2.682927,-1.829268,0.659180,-0.142090,0.749023
1762435483914012,18.292683,-2.621951,-2.195122,0.660645,-0.139648,0.749023
1762435483923927,15.121952,-2.378049,-0.792683,0.661621,-0.133789,0.749023
1762435483933841,10.670732,-2.073171,0.792683,0.662109,-0.129883,0.748047
1762435483943757,7.926829,-2.865854,2.804878,0.662598,-0.123047,0.748047
1762435483953671,0.426829,-2.134146,3.414634,0.663574,-0.116699,0.748047
1762435483963586,-2.500000,-1.707317,3.170732,0.663574,-0.115234,0.747559
1762435483973501,0.000000,-1.890244,2.804878,0.664062,-0.114746,0.746582
1762435483983416,2.500000,-1.646342,1.707317,0.664551,-0.116211,0.746582
1762435483993331,6.829268,-0.792683,0.000000,0.665527,-0.117188,0.747070
1762435484003246,8.109756,-0.426829,-1.829268,0.665039,-0.115723,0.747070
1762435484013161,6.463415,-0.182927,-2.500000,0.665527,-0.112305,0.747070
1762435484023076,1.951220,0.121951,-1.585366,0.666016,-0.107910,0.748047
1762435484032991,-3.048780,0.609756,-0.121951,0.666016,-0.104980,0.748047
1762435484042906,-6.097561,0.670732,1.524390,0.666992,-0.101074,0.748535
1762435484052821,-11.036586,1.402439,2.865854,0.667969,-0.098145,0.748535
1762435484062736,-11.829268,1.768293,3.231707,0.667969,-0.098633,0.748047
1762435484072651,-8.170732,1.829268,2.378049,0.668457,-0.101562,0.747070
1762435484082566,-1.341463,1.280488,0.914634,0.668457,-0.104004,0.746094
1762435484092481,5.487805,0.182927,-0.731707,0.667480,-0.106934,0.744141
1762435484102395,16.707317,-2.317073,-2.378049,0.667969,-0.109863,0.743652
1762435484112310,21.951220,-6.219512,-2.743902,0.666504,-0.109863,0.741211
1762435484132140,28.780489,-16.768293,-2.500000,0.667969,-0.105469,0.743164
1762435484142055,21.524391,-15.487805,-1.524390,0.668945,-0.100098,0.744141
1762435484151970,14.573171,-12.926829,-1.097561,0.669922,-0.095703,0.745117
1762435484161885,8.597561,-11.463415,-1.036585,0.671387,-0.091797,0.745605
1762435484171800,3.292683,-9.146341,-1.341463,0.673340,-0.090332,0.745605
1762435484181715,2.682927,-7.621952,-1.890244,0.674805,-0.087891,0.745117
1762435484191630,-2.256098,-5.121951,-1.707317,0.676270,-0.084473,0.745117
1762435484201545,-5.243903,-3.902439,-1.158537,0.676270,-0.083496,0.744141
1762435484211460,-4.146341,-4.573171,-0.670732,0.676270,-0.082031,0.742676
1762435484221375,-0.304878,-17.317074,-1.524390,0.673340,-0.083984,0.736328
1762435484231290,14.268293,-46.951221,-5.975610,0.666992,-0.087402,0.727051
1762435484251120,26.524391,-55.060978,-7.317073,0.677246,-0.088379,0.731934
1762435484261034,24.512196,-50.853661,-8.475610,0.681152,-0.085449,0.731934
1762435484270949,20.914635,-43.841465,-9.451220,0.684570,-0.082031,0.731934
1762435484280864,15.792684,-34.634148,-9.085366,0.688477,-0.076660,0.731445
1762435484290780,7.073171,-23.597561,-6.524390,0.693359,-0.069336,0.731445
1762435484300694,-6.707317,-9.085366,-1.280488,0.699707,-0.059570,0.732422
1762435484310609,-24.024391,8.658537,4.512195,0.705566,-0.053711,0.732910
1762435484320524,-30.182928,20.853659,6.707317,0.710449,-0.052734,0.733887
1762435484330439,-36.219513,40.731709,8.048780,0.713379,-0.049805,0.734863
1762435484340354,-44.207317,61.646343,10.304878,0.724121,-0.051758,0.743652
1762435484350269,-53.475613,61.890244,7.743903,0.713867,-0.046875,0.732422
1762435484360184,-61.402439,63.353661,7.865854,0.712891,-0.047363,0.731934
1762435484370099,-59.512196,52.865856,5.365854,0.709473,-0.050781,0.729492
1762435484380014,-55.609756,40.731709,3.597561,0.706055,-0.053223,0.727051
1762435484389929,-55.914635,31.768293,2.256098,0.705078,-0.053223,0.727051
1762435484409758,-51.768295,21.524391,0.792683,0.699707,-0.063965,0.725586
1762435484419673,-36.707317,16.402439,1.158537,0.696777,-0.072754,0.724609
1762435484429588,-26.463415,15.731708,1.036585,0.695801,-0.078613,0.726562
1762435484439503,-20.121952,14.634147,0.182927,0.693848,-0.083496,0.727051
1762435484449418,-15.000000,12.804878,-0.487805,0.692871,-0.087402,0.728516
1762435484459333,16.707317,11.951220,-10.914635,0.698242,-0.079102,0.737793
1762435484469248,-25.792683,19.390244,-5.975610,0.695312,-0.079102,0.737793
1762435484479163,-29.512196,12.804878,-2.073171,0.689453,-0.081055,0.734375
1762435484489078,-34.573170,6.097561,0.426829,0.684570,-0.081055,0.733887
1762435484498993,-39.451221,5.548780,-1.585366,0.681641,-0.081543,0.734375
1762435484508908,-42.012196,5.792683,-2.926829,0.680176,-0.086914,0.735840
1762435484518823,-35.243904,6.097561,-5.609756,0.681152,-0.093750,0.738281
1762435484528738,-29.573172,7.439024,-6.951220,0.685059,-0.102051,0.742676
1762435484538653,-25.426830,12.926829,-3.414634,0.689453,-0.113281,0.748535
1762435484548568,-14.268293,19.329269,0.121951,0.690918,-0.127930,0.751953
1762435484568397,3.841464,19.024391,7.926829,0.686035,-0.145508,0.750000
1762435484578312,5.792683,13.963415,5.914634,0.686035,-0.150879,0.750000
1762435484588227,2.195122,9.329268,6.585366,0.688965,-0.155762,0.751953
1762435484598142,-0.670732,5.853659,9.695122,0.694336,-0.160156,0.755859
1762435484608057,-3.902439,5.000000,11.646341,0.699707,-0.164062,0.760254
1762435484617972,-7.378049,6.951220,11.585366,0.703125,-0.169922,0.763184
1762435484627887,-6.890244,9.634147,10.914635,0.703125,-0.180176,0.763672
1762435484637802,-2.317073,9.817074,10.975610,0.700195,-0.192871,0.761719
1762435484647717,4.085366,10.243902,12.073171,0.696777,-0.208008,0.759766
1762435484657632,9.146341,12.926829,15.670732,0.693848,-0.226074,0.758301
1762435484667547,16.219513,15.975610,20.060976,0.690918,-0.247070,0.757324
1762435484677462,24.451220,17.500000,26.036587,0.688477,-0.269531,0.755859
1762435484687377,33.414635,16.219513,33.780487,0.685547,-0.291504,0.753418
1762435484697292,40.060978,12.621951,43.475613,0.682617,-0.311523,0.750488
1762435484707207,45.609756,9.329268,51.585365,0.679199,-0.328125,0.747070
1762435484727036,53.963417,7.743903,56.280491,0.673828,-0.355957,0.740234
1762435484736951,59.573174,14.634147,58.353661,0.674805,-0.374512,0.740723
1762435484746866,68.841469,24.695122,66.524391,0.675293,-0.393066,0.741211
1762435484756781,82.073174,25.426830,75.426834,0.676758,-0.405273,0.741211
1762435484766696,90.853661,24.146341,84.207321,0.679688,-0.410156,0.743164
1762435484776611,95.670731,22.073172,92.317078,0.682617,-0.409180,0.746582
1762435484786526,99.817078,23.780489,98.231712,0.683105,-0.403320,0.749512
1762435484796441,101.402443,25.853659,101.829269,0.679688,-0.392578,0.750488
1762435484806356,100.609756,26.219513,102.682930,0.671387,-0.379395,0.749023
1762435484816271,99.268295,25.000000,102.560982,0.659180,-0.365723,0.745117
1762435484826186,98.414635,21.219513,104.207321,0.645020,-0.352539,0.740234
1762435484836101,100.487808,14.634147,106.829269,0.631348,-0.338379,0.734863
1762435484846016,103.231712,7.560976,108.719513,0.620605,-0.321289,0.729492
1762435484855931,100.182930,-1.890244,112.012199,0.613770,-0.303223,0.725098
1762435484865846,96.158539,-10.609756,113.841469,0.610352,-0.284668,0.722656
1762435484875760,92.560974,-14.817074,113.597565,0.610840,-0.267090,0.723145
1762435484885675,88.536591,-12.987805,112.378052,0.612305,-0.250488,0.723633
1762435484895590,86.219513,-8.902439,110.548782,0.613281,-0.239746,0.724121
1762435484905505,90.731712,-5.426829,110.426834,0.613281,-0.233398,0.723633
1762435484915420,101.707321,-3.597561,113.109756,0.610840,-0.227539,0.721680
1762435484925335,113.231712,-2.134146,116.646347,0.607910,-0.217285,0.718750
1762435484935250,118.170738,4.634147,120.731712,0.605469,-0.201172,0.716797
1762435484945165,113.109756,13.292684,125.792686,0.602539,-0.180664,0.713867
1762435484955080,103.170731,13.414635,129.024399,0.598633,-0.158691,0.710938
1762435484964995,92.073174,13.475610,127.560982,0.596680,-0.138184,0.709961
1762435484974910,89.024391,16.951220,118.109756,0.595215,-0.119141,0.710938
1762435484984825,91.646347,22.682928,103.780487,0.592285,-0.102051,0.710449
1762435484994740,94.146347,25.243902,91.097565,0.586914,-0.087891,0.708984
1762435485004655,98.963417,26.402439,80.731712,0.580078,-0.075684,0.706055
1762435485014570,104.695122,32.987804,72.560974,0.574219,-0.064453,0.704590
1762435485024485,110.548782,42.743904,64.756096,0.570312,-0.051758,0.706055
1762435485034399,116.219513,65.182930,58.658539,0.566895,-0.037109,0.708984
1762435485044315,115.731712,80.792686,56.341465,0.562500,-0.019531,0.712402
1762435485054229,115.426834,82.195122,56.707317,0.556152,0.000488,0.714355
1762435485064144,110.487808,80.487808,59.085369,0.548340,0.023926,0.714844
1762435485074059,97.560974,76.341469,60.609756,0.541016,0.050293,0.716797
1762435485083974,83.292686,71.097565,58.414635,0.537109,0.073730,0.720215
1762435485093889,72.865852,63.292683,53.292683,0.535156,0.090820,0.723145
1762435485103804,66.707321,57.378052,52.195122,0.535645,0.101074,0.728516
1762435485113720,59.878052,51.402439,55.670734,0.536621,0.111328,0.736328
1762435485123634,50.548782,46.036587,58.719513,0.537598,0.124023,0.746094
1762435485133549,41.524391,47.317074,57.865856,0.538086,0.137207,0.757812
1762435485143464,38.109756,53.780491,52.560978,0.536133,0.146484,0.770508
1762435485153379,38.048782,63.292683,47.439026,0.532227,0.150391,0.782227
1762435485163294,44.390244,72.804878,43.963417,0.527832,0.147949,0.792969
1762435485173209,50.426830,78.292686,43.109756,0.524414,0.144531,0.802246
1762435485183124,50.304878,70.792686,45.792683,0.521973,0.138672,0.812012
1762435485193038,47.317074,57.500000,51.829269,0.520996,0.131348,0.823242
1762435485202954,42.865856,43.292683,60.304878,0.520508,0.123047,0.837402
1762435485212868,37.682926,32.987804,69.878052,0.521484,0.117188,0.856445
1762435485222783,30.121952,24.512196,76.951218,0.522949,0.116211,0.877441
1762435485232698,19.817074,22.804878,82.560974,0.523926,0.116211,0.898926
1762435485242613,10.121951,28.597561,88.231712,0.524414,0.113281,0.919922
1762435485252528,9.024390,44.695122,93.658539,0.522461,0.106934,0.940430
1762435485262444,12.439025,67.926834,98.109756,0.517578,0.100098,0.955078
1762435485272358,15.000000,81.341469,102.621956,0.506348,0.095703,0.957031
1762435485282273,15.365854,80.121956,106.585365,0.490234,0.094727,0.949707
1762435485292188,16.463415,70.121956,108.414635,0.472168,0.097656,0.940918
1762435485302103,15.121952,61.036587,107.012199,0.455078,0.101562,0.931641
1762435485312020,17.256098,56.341465,106.097565,0.436523,0.101562,0.920898
1762435485321933,16.585365,60.243904,110.304878,0.418945,0.102051,0.910156
1762435485331848,10.304878,63.719513,113.414635,0.400391,0.108398,0.901367
1762435485341763,4.024390,54.817074,109.573174,0.383301,0.123535,0.896973
1762435485351678,-8.902439,47.865856,98.902443,0.368652,0.145020,0.896973
1762435485361593,-27.256098,39.146343,84.268295,0.354492,0.166016,0.899902
1762435485371508,-37.987804,27.195122,69.573174,0.341309,0.181152,0.903809
1762435485381422,-44.085365,13.170732,56.707317,0.327637,0.191406,0.907227
1762435485391337,-43.719513,-1.402439,45.365856,0.314941,0.199219,0.908691
1762435485401253,-42.865856,-15.853659,34.146343,0.304199,0.204590,0.908691
1762435485411167,-39.146343,-29.634148,22.439026,0.296387,0.208496,0.910156
1762435485421082,-37.378048,-39.146343,11.829268,0.290527,0.209473,0.912598
1762435485430997,-37.256100,-48.231709,4.085366,0.287598,0.205078,0.914062
1762435485440912,-39.390244,-59.512196,1.829268,0.285156,0.193848,0.911133
1762435485450827,-39.878048,-73.536591,6.585366,0.281250,0.176270,0.904785
1762435485460742,-41.219513,-91.341469,15.243903,0.276855,0.158691,0.894531
1762435485470658,-45.304878,-112.621956,23.475611,0.272461,0.144043,0.882324
1762435485480572,-52.621952,-138.780487,28.536587,0.269043,0.134766,0.868652
1762435485490487,-62.317074,-167.560974,29.329269,0.268555,0.128418,0.854980
1762435485500402,-68.292686,-197.195129,24.634148,0.270020,0.122559,0.840820
1762435485510317,-70.243904,-226.402451,16.829269,0.276367,0.116211,0.828125
1762435485520233,-68.414635,-255.121964,7.865854,0.287109,0.108887,0.816406
1762435485530147,-64.085365,-297.743896,-3.048780,0.300293,0.105469,0.799805
1762435485540062,-81.158539,-166.890244,-6.951220,0.457031,0.065430,1.011719
1762435485549977,2.134146,-4.695122,8.963415,0.468750,0.029785,1.072266
1762435485569806,-25.243902,-46.890244,-4.024390,0.465332,0.020020,0.974121
1762435485579721,-0.792683,-26.646341,-10.487805,0.481934,0.001953,0.984375
1762435485589636,23.109756,-35.243904,-21.097561,0.495117,-0.002930,0.980469
1762435485599551,22.378050,-19.939024,-24.939026,0.508301,-0.010742,0.978516
1762435485609466,57.621952,38.109756,-31.524391,0.541504,-0.032715,1.011719
1762435485619381,90.000000,226.524399,-23.414635,0.615723,-0.062988,1.119629
1762435485629296,112.439026,363.658539,-4.146341,0.680176,-0.100098,1.198242
1762435485639212,130.792679,405.914642,18.841463,0.709961,-0.117188,1.206055
1762435485649126,126.097565,367.256104,27.560976,0.697266,-0.105957,1.151367
1762435485659041,104.634148,293.719513,17.500000,0.652344,-0.078125,1.063477
1762435485668956,76.219513,211.219513,2.012195,0.592285,-0.051758,0.971191
1762435485678872,64.146339,130.670731,-8.902439,0.534668,-0.036621,0.898438
1762435485688786,66.280487,72.134148,-12.012196,0.487793,-0.025879,0.850586
1762435485698701,63.109756,39.817074,-10.670732,0.449219,-0.008789,0.821777
1762435485708616,45.731709,-16.829269,-14.024390,0.400391,0.029297,0.776855
1762435485728446,-81.890244,-316.646362,-50.243904,0.258789,0.123047,0.545410
1762435485738361,-151.036591,-676.890259,-48.597561,0.212402,0.134766,0.388672
1762435485748275,-203.719513,-738.780518,-35.426830,0.225586,0.129883,0.272461
1762435485758191,-206.768295,-750.121948,-32.560978,0.297852,0.100586,0.241699
1762435485768106,-254.085373,-106.402443,53.841465,0.737305,-0.080566,0.952637
1762435485778020,24.512196,-53.902439,35.000000,0.718750,-0.031250,0.906738
1762435485787936,-72.500000,-36.707317,31.829269,0.679199,-0.016113,0.812988
1762435485797850,-50.609756,35.853661,24.512196,0.693359,-0.056152,0.858887
1762435485807765,84.268295,34.878048,-28.353659,0.712891,-0.048828,0.894531
1762435485817680,67.317078,138.841461,-42.012196,0.762695,-0.050781,0.976562
1762435485827595,76.829269,243.048782,-39.146343,0.810059,-0.070312,1.045410
1762435485837511,116.829269,276.524384,-38.658539,0.828125,-0.068359,1.061523
1762435485847425,128.902435,273.109772,-47.865856,0.821777,-0.033691,1.037109
1762435485857340,105.426834,253.292694,-67.560974,0.796875,0.018066,0.990723
1762435485867255,67.256096,215.182938,-89.024391,0.761230,0.071289,0.937988
1762435485877169,29.756098,167.621948,-106.097565,0.726074,0.116699,0.893066
1762435485887085,2.987805,125.487808,-120.792686,0.695801,0.151855,0.861816
1762435485897000,-12.987805,101.951225,-130.609756,0.672363,0.175781,0.846191
1762435485906915,-16.463415,90.487808,-139.451218,0.651855,0.195312,0.837891
1762435485916830,-15.853659,82.378052,-150.548782,0.629395,0.210938,0.827637
1762435485926745,-12.621951,78.658539,-161.829269,0.602539,0.226074,0.814453
1762435485936660,-16.829269,53.475613,-173.292694,0.575195,0.242676,0.803711
1762435485946574,-24.939026,25.243902,-186.646347,0.549316,0.260254,0.797363
1762435485956490,-41.463417,1.951220,-199.024399,0.527344,0.272949,0.796875
1762435485966405,-59.512196,-17.987804,-206.402451,0.508301,0.274414,0.797363
1762435485976319,-72.926834,-37.073174,-205.304886,0.491699,0.262695,0.797363
1762435485986235,-72.073174,-54.756100,-196.463425,0.477539,0.248047,0.797363
1762435485996151,-63.902439,-65.975609,-191.890244,0.469238,0.238770,0.801270
1762435486006064,-58.841465,-67.195122,-192.134155,0.471680,0.238281,0.816895
1762435486015979,-62.926830,-52.378052,-195.792694,0.483398,0.243164,0.842285
1762435486025894,-71.890244,-37.134148,-203.353668,0.498047,0.248535,0.865723
1762435486035808,-85.731712,-32.743904,-208.109756,0.510254,0.250488,0.878418
1762435486045725,-104.085365,-29.817074,-205.182938,0.520020,0.244629,0.882324
1762435486055639,-122.134148,-25.060976,-195.609756,0.525391,0.232910,0.881348
1762435486065554,-133.292679,-26.890245,-185.243912,0.528809,0.215820,0.877441
1762435486075469,-127.743904,-27.317074,-183.231705,0.528809,0.195801,0.872559
1762435486085384,-111.402443,-20.975611,-185.000000,0.525879,0.168945,0.867188
1762435486095299,-89.512199,-9.695122,-177.378052,0.520508,0.139648,0.863281
1762435486105214,-64.695122,0.914634,-163.292694,0.510742,0.116211,0.858887
1762435486115129,-46.646343,5.365854,-154.756104,0.496094,0.105469,0.853027
1762435486125044,-37.621952,7.378049,-156.524399,0.479004,0.103516,0.845215
1762435486134959,-36.097561,9.634147,-163.597565,0.460938,0.105469,0.835938
1762435486144874,-41.402439,7.621952,-168.292694,0.441895,0.103027,0.824707
1762435486164703,-58.780491,-19.329269,-152.195129,0.410645,0.074219,0.803711
1762435486174618,-68.902443,-37.134148,-132.682922,0.399414,0.061523,0.799316
1762435486184533,-80.121956,-53.475613,-118.841469,0.390625,0.058594,0.797363
1762435486194448,-97.012199,-61.707317,-115.487808,0.387207,0.060547,0.803223
1762435486204364,-111.280487,-59.451221,-120.853661,0.389648,0.056152,0.812012
1762435486214278,-115.304878,-55.060978,-123.536591,0.394043,0.038574,0.820801
1762435486224193,-110.000000,-52.621952,-119.451225,0.400391,0.015625,0.828613
1762435486234108,-103.902443,-51.036587,-112.378052,0.406250,-0.008301,0.836426
1762435486244023,-99.024391,-49.085365,-105.792686,0.410156,-0.032715,0.840820
1762435486253938,-90.487808,-51.829269,-98.902443,0.413574,-0.058105,0.841797
1762435486263854,-83.292686,-62.378052,-86.341469,0.416992,-0.082520,0.842773
1762435486273768,-79.451218,-74.512199,-67.195122,0.422363,-0.102539,0.850098
1762435486283683,-76.585365,-82.256096,-48.353661,0.428711,-0.116211,0.861328
1762435486293598,-74.756096,-89.207321,-35.548782,0.434082,-0.122559,0.872070
1762435486303513,-75.060974,-96.768295,-30.670732,0.438477,-0.124512,0.879883
1762435486313429,-77.439026,-100.487808,-32.804878,0.441406,-0.125488,0.883789
1762435486323343,-78.414635,-94.268295,-37.378048,0.443359,-0.133301,0.884277
1762435486333258,-71.951218,-77.743904,-39.024391,0.443848,-0.147949,0.882812
1762435486343173,-59.695122,-65.182930,-36.402439,0.443359,-0.166504,0.878418
1762435486353087,-43.780487,-60.609756,-28.292683,0.440918,-0.185059,0.871582
1762435486363003,-28.475611,-58.536587,-18.231709,0.439453,-0.196777,0.868652
1762435486372918,-14.512196,-50.426830,-13.719513,0.439453,-0.199707,0.868652
1762435486382832,-6.951220,-39.695122,-14.878049,0.440430,-0.191406,0.869141
1762435486392748,-10.000000,-27.926830,-21.585367,0.444336,-0.177734,0.869629
1762435486402663,-22.682928,-20.487804,-29.817074,0.451660,-0.168457,0.869629
1762435486412578,-31.036587,-19.024391,-33.780487,0.459473,-0.168457,0.868652
1762435486422492,-32.865856,-21.402439,-30.670732,0.467773,-0.175293,0.867188
1762435486432407,-30.914635,-28.536587,-22.378050,0.475586,-0.179688,0.866211
1762435486442322,-28.963415,-36.890244,-17.378050,0.484375,-0.179199,0.866211
1762435486452237,-30.365854,-40.731709,-18.292683,0.493164,-0.175781,0.866211
1762435486462152,-33.414635,-41.890244,-22.134148,0.499512,-0.173340,0.865234
1762435486472068,-34.085365,-40.853661,-24.939026,0.503418,-0.175781,0.861816
1762435486481982,-31.646341,-37.560978,-23.353659,0.503906,-0.179688,0.854492
1762435486491897,-41.463417,-40.670734,-13.963415,0.505859,-0.178223,0.846680
1762435486501812,-45.792683,-47.317074,-13.048780,0.510742,-0.175781,0.842773
1762435486511726,-40.792683,-46.707317,-20.914635,0.517090,-0.173340,0.843262
1762435486521642,-37.987804,-37.378048,-26.768293,0.525391,-0.173828,0.845215
1762435486531557,-33.597561,-27.926830,-30.121952,0.532227,-0.176270,0.844727
1762435486541472,-32.865856,-25.426830,-30.182928,0.536621,-0.180176,0.840820
1762435486551387,-31.890245,-26.341465,-27.743902,0.539551,-0.185059,0.834473
1762435486561302,-29.329269,-27.804878,-25.426830,0.540527,-0.187012,0.825684
1762435486571217,-29.939026,-31.097561,-25.426830,0.540039,-0.189453,0.814941
1762435486581132,-32.256100,-34.573170,-24.146341,0.540527,-0.192871,0.803223
1762435486591047,-34.390244,-38.902439,-20.914635,0.546387,-0.200195,0.793457
1762435486600962,-41.036587,-44.695122,-6.829268,0.557617,-0.208984,0.793457
1762435486610877,-37.134148,-36.341465,7.865854,0.572266,-0.218262,0.800293
1762435486620792,-32.865856,-22.134148,17.317074,0.583984,-0.219238,0.803223
1762435486640621,-42.439026,-26.097561,21.280489,0.592773,-0.215820,0.791504
1762435486650536,-30.853659,-27.256098,8.231708,0.598145,-0.215820,0.784180
1762435486660452,-4.268293,-25.670732,-17.439024,0.607422,-0.208008,0.782715
1762435486670366,-17.439024,-30.060976,-16.707317,0.621094,-0.200684,0.789062
1762435486680282,-21.219513,-28.475611,-13.963415,0.636719,-0.198242,0.800781
1762435486690196,-23.353659,-23.719513,-11.341464,0.648438,-0.194824,0.811523
1762435486700111,-27.073172,-20.487804,-4.512195,0.650879,-0.194336,0.815918
1762435486710026,-24.268293,-20.426830,-2.134146,0.645996,-0.188477,0.811035
1762435486719941,-32.621952,-20.304878,-0.548781,0.640137,-0.178223,0.803711
1762435486729856,-48.780487,-16.646341,-1.280488,0.639160,-0.168945,0.796875
1762435486739772,-53.353661,-16.097561,-11.707317,0.643066,-0.166016,0.790527
1762435486749686,-54.512196,-18.170732,-19.634148,0.650391,-0.168945,0.786621
1762435486759602,-49.329269,-18.292683,-22.134148,0.657227,-0.178223,0.785156
1762435486769517,-39.939026,-14.146341,-20.182928,0.660645,-0.186035,0.781250
1762435486779431,-36.768295,-13.780488,-16.402439,0.660645,-0.193848,0.772949
1762435486799261,-33.353661,-12.865854,-5.670732,0.656738,-0.204590,0.757812
1762435486809176,-32.987804,-5.670732,-1.829268,0.658203,-0.208496,0.753418
1762435486819091,-24.695122,-3.170732,-4.939024,0.659180,-0.208984,0.749023
1762435486829006,-21.280489,-10.975610,-9.024390,0.660645,-0.206055,0.744141
1762435486838921,-27.195122,-24.268293,-8.231708,0.662598,-0.202148,0.739258
1762435486848836,-31.768293,-50.670734,-8.963415,0.663574,-0.197266,0.732422
1762435486858751,-39.512196,-93.719513,-10.487805,0.663574,-0.191406,0.724609
1762435486868666,-49.451221,-125.243904,-13.658537,0.666504,-0.187012,0.719238
1762435486878581,-57.621952,-125.853661,-15.365854,0.675781,-0.184082,0.720215
1762435486888496,-66.402443,-61.402439,13.658537,0.703125,-0.204102,0.742676
1762435486898411,-54.939026,-32.134148,18.109756,0.702637,-0.230957,0.729004
1762435486908325,-24.878050,-36.463417,8.292683,0.702637,-0.230469,0.720215
1762435486918241,-25.609756,-27.804878,1.463415,0.701660,-0.219727,0.711914
1762435486928156,-35.487804,-11.951220,-8.963415,0.700684,-0.217285,0.702637
1762435486938071,-35.853661,6.036585,-16.585365,0.698730,-0.226074,0.691895
1762435486947985,-18.841463,13.902439,-35.487804,0.703613,-0.228516,0.686035
1762435486957900,-15.670732,20.426830,-46.036587,0.708008,-0.225098,0.681641
1762435486967820,-27.195122,27.256098,-46.707317,0.712891,-0.224121,0.677246
1762435486977731,-36.036587,29.268293,-42.987804,0.717285,-0.225098,0.672852
1762435486987645,-42.560978,31.829269,-34.756100,0.721191,-0.230469,0.668945
1762435486997560,-44.390244,35.548782,-25.975611,0.726562,-0.240723,0.666016
1762435487007475,-32.500000,39.695122,-25.365854,0.731934,-0.250488,0.665039
1762435487017390,-21.280489,45.975613,-26.707317,0.736328,-0.256348,0.663574
1762435487027305,-15.182927,49.695122,-29.756098,0.740234,-0.263672,0.662109
1762435487037221,-11.707317,56.097561,-23.231709,0.742676,-0.273926,0.661621
1762435487047135,-2.500000,63.353661,-16.097561,0.741699,-0.284668,0.659180
1762435487057050,7.560976,67.134148,-11.158537,0.738281,-0.290039,0.657227
1762435487066965,13.719513,69.634148,-4.939024,0.734375,-0.290039,0.655273
1762435487076880,12.256098,69.939026,-2.012195,0.730957,-0.283203,0.653809
1762435487086795,4.756098,69.390244,-2.134146,0.731445,-0.275879,0.655273
1762435487096710,-1.524390,65.000000,-1.951220,0.735352,-0.270020,0.660156
1762435487106624,-4.573171,59.024391,0.426829,0.738281,-0.267578,0.666016
1762435487116540,-7.378049,59.756100,4.207317,0.741211,-0.264160,0.673828
1762435487126455,-20.975611,77.743904,14.512196,0.742188,-0.255859,0.683105
1762435487136370,-27.195122,94.939026,8.963415,0.737793,-0.250000,0.686523
1762435487146285,-24.817074,92.012199,-5.792683,0.726562,-0.241699,0.685059
1762435487156200,-35.426830,75.975609,-9.939025,0.713379,-0.239746,0.682129
1762435487166115,-38.231709,56.585365,-11.158537,0.700684,-0.246582,0.680176
1762435487176029,-37.439026,43.231709,-0.975610,0.690918,-0.258789,0.682617
1762435487185944,-31.585367,41.158539,10.914635,0.683594,-0.272461,0.687500
1762435487195860,-27.560976,50.365856,20.182928,0.672363,-0.277344,0.689941
1762435487205774,-31.524391,52.865856,23.475611,0.656250,-0.276367,0.686035
1762435487215689,-34.390244,42.134148,17.865854,0.640625,-0.276367,0.682129
1762435487225604,-31.524391,28.292683,10.670732,0.628418,-0.283203,0.679688
1762435487235519,-23.597561,15.792684,10.548780,0.619629,-0.295898,0.680664
1762435487245434,-12.804878,4.390244,24.878050,0.610352,-0.303711,0.684570
1762435487255350,-25.304878,10.548780,42.500000,0.597656,-0.292969,0.682129
1762435487265264,-28.780489,4.085366,24.024391,0.582520,-0.284180,0.675781
1762435487275180,-30.792685,-7.500000,11.219513,0.568848,-0.275391,0.673828
1762435487285095,-37.012196,-13.353659,8.292683,0.560059,-0.271484,0.673828
1762435487295009,-29.085367,-23.292683,-1.707317,0.554688,-0.272461,0.675293
1762435487304924,-15.609756,-36.524391,-12.073171,0.549316,-0.272949,0.675293
1762435487324754,-18.475611,-76.890244,-15.548780,0.542969,-0.266602,0.670898
1762435487334669,-10.426829,-99.268295,-20.182928,0.564453,-0.282715,0.692383
1762435487344586,1.829268,-23.780489,-12.865854,0.605957,-0.297852,0.728027
1762435487354499,13.292684,-45.060978,-12.378049,0.618164,-0.290039,0.735352
1762435487364414,-2.439024,-2.926829,0.487805,0.647949,-0.300781,0.759766
1762435487374329,8.292683,-18.048780,1.036585,0.653809,-0.303711,0.759766
1762435487384244,5.853659,-35.670734,5.548780,0.652832,-0.306641,0.756836
1762435487394159,16.341463,-41.951221,6.585366,0.646973,-0.309082,0.750977
1762435487404074,26.707317,-42.865856,3.780488,0.647949,-0.307617,0.751953
1762435487413989,28.109756,-45.792683,5.853659,0.648926,-0.310059,0.752441
1762435487423904,34.695122,-49.939026,9.634147,0.650879,-0.312500,0.750977
1762435487433820,41.036587,-48.109756,0.975610,0.663574,-0.306641,0.755859
1762435487443734,39.756100,-52.682930,-26.341465,0.689941,-0.293945,0.768555
1762435487453649,19.390244,-83.719513,-38.231709,0.684570,-0.287598,0.755859
1762435487463564,-4.756098,-62.012196,-17.621952,0.657227,-0.289551,0.730469
1762435487483394,1.219512,-13.841464,-19.634148,0.675293,-0.290527,0.733887
1762435487493308,-11.158537,-14.573171,-1.341463,0.649414,-0.288574,0.712402
1762435487503223,-10.792684,-3.231707,2.804878,0.648926,-0.289062,0.709473
1762435487513138,-6.585366,-1.097561,1.402439,0.655762,-0.289551,0.710449
1762435487523053,-7.500000,-3.170732,4.268293,0.658203,-0.285645,0.707520
1762435487532968,-15.914635,-2.439024,8.658537,0.662109,-0.281250,0.706543
1762435487542883,-21.280489,-2.439024,10.365854,0.664551,-0.282715,0.703613
1762435487552799,-18.048780,-2.195122,9.451220,0.666016,-0.285156,0.700684
1762435487562713,-14.756098,-1.219512,8.719512,0.668457,-0.285645,0.698730
1762435487572628,-14.817074,-0.304878,8.841464,0.670410,-0.286133,0.696289
1762435487582543,-13.475610,0.548781,8.231708,0.672363,-0.288086,0.693848
1762435487592459,-10.609756,1.463415,7.073171,0.674805,-0.290039,0.691406
1762435487602373,-5.975610,2.256098,4.695122,0.676758,-0.293457,0.688965
1762435487612294,-3.475610,3.414634,3.414634,0.678223,-0.293457,0.687500
1762435487622203,-4.573171,4.756098,2.865854,0.679199,-0.293945,0.686523
1762435487632117,-5.243903,5.792683,2.134146,0.680176,-0.294922,0.685547
1762435487642033,-4.573171,6.829268,1.341463,0.680664,-0.295898,0.685059
1762435487651948,-5.182927,8.048780,1.341463,0.681641,-0.296387,0.685059
1762435487661863,-5.304878,9.573171,1.829268,0.683105,-0.296387,0.685547
1762435487671778,-6.341464,12.500000,2.926829,0.684570,-0.296875,0.686035
1762435487681693,-6.402439,19.512196,3.048780,0.688477,-0.298340,0.688477
1762435487691608,8.292683,36.219513,-9.390244,0.699707,-0.300781,0.696777
1762435487701523,23.597561,66.585365,-24.634148,0.704590,-0.301270,0.702637
1762435487711438,22.743902,91.158539,-21.341463,0.699219,-0.305664,0.700684
1762435487721353,17.256098,92.865852,-5.853659,0.688965,-0.309082,0.695312
1762435487731268,11.402439,84.817078,9.024390,0.678711,-0.309082,0.691406
1762435487741183,8.841464,74.085365,13.841464,0.669434,-0.305176,0.688965
1762435487751099,6.585366,62.317074,10.914635,0.661621,-0.299316,0.688477
1762435487761013,6.280488,49.207317,4.634147,0.653809,-0.295410,0.687500
1762435487770928,6.524390,36.646343,0.731707,0.647461,-0.292969,0.688477
1762435487780843,3.658537,26.341465,1.219512,0.642090,-0.291504,0.689453
1762435487790757,4.207317,16.158537,0.975610,0.637695,-0.291504,0.691895
1762435487800673,5.670732,7.500000,0.975610,0.633789,-0.291504,0.694336
1762435487810588,6.402439,-1.768293,1.524390,0.629395,-0.290527,0.696289
1762435487820503,7.256098,-18.292683,1.768293,0.623535,-0.288086,0.696289
1762435487830417,5.000000,-46.707317,0.853659,0.614258,-0.281250,0.691406
1762435487840333,-4.878049,-101.219513,0.731707,0.601562,-0.266602,0.678711
1762435487850248,-30.609756,-190.853668,3.475610,0.596191,-0.253418,0.668457
1762435487860162,22.926830,-103.475609,-4.756098,0.685547,-0.274414,0.752441
1762435487870077,36.402439,-51.524391,-9.878049,0.683594,-0.301270,0.740723
1762435487879992,47.134148,-72.804878,-33.353661,0.689453,-0.277832,0.738281
1762435487889907,4.146341,-50.060978,-33.780487,0.708496,-0.268066,0.750000
1762435487899823,-11.951220,-40.426830,-1.585366,0.673828,-0.278320,0.724609
1762435487919652,3.841464,-13.597561,-10.060976,0.678223,-0.272461,0.722168
1762435487929567,5.975610,-17.439024,-18.902439,0.694824,-0.272461,0.725586
1762435487939482,4.329268,-27.560976,-3.536585,0.664551,-0.274414,0.704590
1762435487949397,-1.280488,-7.378049,4.817073,0.661133,-0.267578,0.700195
1762435487959312,-6.890244,1.829268,1.951220,0.667480,-0.270508,0.699219
1762435487969227,1.036585,2.500000,-0.304878,0.669922,-0.270996,0.696777
1762435487979142,0.304878,3.231707,-1.158537,0.673340,-0.268555,0.695312
1762435487989057,-3.231707,3.292683,0.670732,0.675781,-0.265625,0.694336
1762435487998972,-8.658537,4.268293,3.475610,0.676758,-0.262695,0.693359
1762435488008887,-12.560976,6.646342,6.097561,0.677734,-0.261230,0.692383
1762435488018803,-13.658537,9.634147,7.743903,0.678711,-0.261230,0.691406
1762435488028717,-13.109756,12.134147,8.780488,0.680176,-0.261230,0.690430
1762435488038632,-11.707317,14.268293,8.353659,0.682129,-0.261719,0.689453
1762435488048548,-12.439025,16.707317,10.487805,0.683105,-0.263672,0.688477
1762435488058462,-8.048780,16.951220,5.182927,0.686035,-0.264160,0.688965
1762435488078292,-2.560976,17.621952,1.707317,0.687012,-0.267090,0.688965
1762435488088207,-5.121951,26.768293,13.475610,0.680664,-0.270996,0.687500
1762435488098122,-7.439024,34.451221,23.658537,0.674805,-0.272461,0.684082
1762435488108037,-6.646342,29.085367,21.036587,0.675781,-0.268555,0.686035
1762435488117952,-5.609756,31.280489,10.853659,0.681152,-0.265137,0.690918
1762435488127867,-0.609756,33.902439,-1.341463,0.685059,-0.263672,0.694824
1762435488137782,1.585366,32.378048,-6.280488,0.686035,-0.265137,0.696777
1762435488147697,2.439024,27.621952,-4.024390,0.684082,-0.268066,0.697266
1762435488157612,3.170732,22.134148,0.487805,0.679688,-0.270020,0.696289
1762435488167527,3.414634,16.768293,4.512195,0.674805,-0.270020,0.695801
1762435488177443,1.402439,11.707317,7.500000,0.670898,-0.267578,0.695312
1762435488187357,-0.731707,8.231708,6.707317,0.668945,-0.265137,0.696289
1762435488197272,-0.426829,6.158537,2.743902,0.667969,-0.264160,0.698242
1762435488207187,-0.121951,7.195122,-0.365854,0.666992,-0.263184,0.699707
1762435488217102,-2.865854,9.634147,-0.060976,0.665039,-0.263184,0.700195
1762435488227016,-2.987805,8.963415,-0.914634,0.662598,-0.264648,0.700195
1762435488236932,-2.195122,5.731708,-1.097561,0.660156,-0.266113,0.700684
1762435488246847,-1.829268,2.134146,-0.182927,0.658203,-0.267090,0.701660
1762435488256762,-0.670732,-1.280488,1.036585,0.656250,-0.268555,0.702637
1762435488266677,0.609756,-4.329268,2.804878,0.654785,-0.269043,0.704590
1762435488276592,0.609756,-7.256098,3.597561,0.653809,-0.268555,0.705566
1762435488286507,0.365854,-9.512196,3.170732,0.653809,-0.267090,0.707031
1762435488296421,-1.097561,-8.780488,2.804878,0.653809,-0.266602,0.708008
1762435488306337,-2.987805,-7.378049,1.829268,0.652832,-0.264648,0.708008
1762435488316252,-6.402439,-6.097561,1.524390,0.652344,-0.263184,0.708008
1762435488326167,-6.585366,-5.304878,-0.365854,0.654297,-0.264160,0.709473
1762435488336082,-2.621951,-5.609756,-2.865854,0.657227,-0.266113,0.712402
1762435488345996,-0.792683,-3.963415,-0.792683,0.660645,-0.267578,0.716309
1762435488355911,-0.365854,-4.268293,1.097561,0.662109,-0.267090,0.718262
1762435488365826,0.670732,-8.231708,-1.341463,0.660645,-0.265625,0.716797
1762435488375742,2.073171,-12.256098,-3.353659,0.660156,-0.266113,0.717285
1762435488385656,5.000000,-8.109756,-0.060976,0.664062,-0.270020,0.720215
1762435488395572,17.500000,-18.353659,-3.292683,0.666504,-0.270508,0.721680
1762435488405486,28.353659,-35.609756,-5.121951,0.671387,-0.270020,0.724609
1762435488415402,24.390244,-40.914635,4.085366,0.667969,-0.272949,0.720703
1762435488425316,24.451220,-36.707317,2.378049,0.670410,-0.269531,0.721191
1762435488445146,3.109756,-44.329269,-29.451220,0.697266,-0.249512,0.732910
1762435488455062,-11.585366,-37.195122,-22.682928,0.698730,-0.254395,0.731445
1762435488464976,-7.134147,-30.365854,4.634147,0.662598,-0.260254,0.708008
1762435488474891,0.426829,-6.158537,1.036585,0.664062,-0.258301,0.707031
1762435488484806,-2.804878,0.426829,-0.304878,0.668945,-0.258789,0.706055
1762435488494721,-0.365854,-0.609756,0.121951,0.670898,-0.258301,0.704102
1762435488504637,-2.682927,-1.890244,2.012195,0.674316,-0.254883,0.703613
1762435488514551,-7.439024,-3.170732,4.024390,0.676270,-0.252930,0.703125
1762435488524466,-9.085366,-3.292683,3.170732,0.680176,-0.251465,0.704102
1762435488534381,-10.121951,-3.475610,1.463415,0.684082,-0.250000,0.705078
1762435488544296,-11.463415,-5.182927,0.609756,0.688965,-0.247559,0.706543
1762435488554213,-15.121952,-7.865854,-0.182927,0.694824,-0.246094,0.707520
1762435488564126,-14.817074,-10.609756,-3.963415,0.702148,-0.246582,0.709473
1762435488574041,-10.060976,-15.609756,-9.695122,0.702637,-0.249023,0.705078
1762435488583956,-13.536586,-12.865854,9.573171,0.672363,-0.250488,0.687500
1762435488593871,-11.890244,2.865854,5.121951,0.680664,-0.251953,0.690430
1762435488603786,-8.963415,3.902439,2.195122,0.681152,-0.256348,0.687988
1762435488613701,-3.414634,2.500000,0.609756,0.683594,-0.256348,0.687500
1762435488623616,-4.634147,1.036585,1.768293,0.685059,-0.254883,0.687500
1762435488633531,-7.500000,0.487805,3.841464,0.685059,-0.253418,0.687012
1762435488643446,-10.000000,0.548781,5.548780,0.685547,-0.251953,0.686523
1762435488653361,-12.134147,0.914634,6.768293,0.686523,-0.251953,0.686523
1762435488663276,-13.658537,0.243902,7.743903,0.688477,-0.251953,0.685547
1762435488673191,-14.207317,-0.060976,6.829268,0.689453,-0.253906,0.684082
1762435488683106,-10.609756,0.365854,4.207317,0.690430,-0.257324,0.683105
1762435488693021,-6.036585,1.097561,1.402439,0.690918,-0.260254,0.681641
1762435488702936,-3.475610,1.219512,0.000000,0.690918,-0.260742,0.681641
1762435488712852,-3.963415,0.731707,0.731707,0.691406,-0.259766,0.681641
1762435488722766,-6.341464,0.000000,2.378049,0.691895,-0.258789,0.681641
1762435488732681,-7.439024,-0.304878,3.414634,0.692383,-0.259277,0.681641
1762435488742596,-7.621952,0.000000,3.841464,0.692871,-0.260254,0.680664
1762435488762426,-5.914634,1.158537,3.048780,0.694824,-0.262695,0.679199
1762435488772340,-5.548780,1.951220,2.500000,0.695312,-0.264160,0.678223
1762435488782255,-4.329268,2.926829,1.646342,0.695312,-0.265137,0.677734
1762435488792170,-4.512195,3.963415,2.073171,0.695312,-0.264648,0.677734
1762435488802086,-7.195122,5.121951,3.292683,0.695312,-0.264648,0.677734
1762435488812000,-8.597561,6.219512,4.329268,0.695312,-0.265137,0.677734
1762435488821916,-8.719512,7.865854,4.695122,0.695312,-0.266602,0.678223
1762435488831831,-8.109756,9.695122,4.634147,0.695312,-0.268066,0.678223
1762435488841745,-7.926829,12.378049,3.109756,0.694824,-0.269043,0.677734
1762435488851661,-7.256098,13.170732,6.158537,0.692383,-0.272461,0.677246
1762435488861575,-4.207317,15.670732,6.158537,0.691406,-0.274414,0.676758
1762435488871491,-3.597561,18.902439,2.378049,0.695801,-0.272949,0.680176
1762435488881405,-2.987805,21.280489,-0.548781,0.697266,-0.275391,0.682617
1762435488891320,6.463415,33.475609,0.000000,0.695801,-0.274902,0.685059
1762435488901235,2.560976,40.182926,-0.609756,0.691895,-0.274414,0.683594
1762435488911150,-0.365854,32.865856,1.219512,0.688965,-0.273926,0.683105
1762435488921065,-2.073171,28.963415,3.841464,0.687012,-0.272949,0.683594
1762435488930980,-3.170732,25.548780,4.024390,0.685547,-0.272461,0.685059
1762435488940895,-2.682927,22.073172,1.524390,0.684082,-0.272949,0.686035
1762435488950810,-0.792683,18.780489,-0.670732,0.681641,-0.273926,0.686523
1762435488960725,0.182927,15.853659,-0.121951,0.678223,-0.275391,0.687500
1762435488970640,0.243902,15.121952,1.890244,0.675293,-0.276855,0.687988
1762435488980555,1.768293,16.341463,1.646342,0.672852,-0.277344,0.689453
1762435488990470,3.353659,17.987804,0.304878,0.670410,-0.278320,0.690918
1762435489000385,4.817073,17.134148,-0.548781,0.667969,-0.279297,0.691895
1762435489010300,5.792683,13.536586,0.060976,0.665039,-0.280273,0.692871
1762435489020215,5.365854,10.121951,2.012195,0.662598,-0.280273,0.694336
1762435489040045,7.256098,5.000000,2.500000,0.658691,-0.279297,0.697266
1762435489049960,7.317073,0.853659,2.743902,0.656738,-0.277832,0.698730
1762435489059875,5.487805,-2.682927,3.475610,0.656250,-0.275879,0.700684
1762435489069790,3.048780,-4.024390,3.719512,0.656250,-0.274414,0.702637
1762435489079705,4.268293,-5.365854,1.097561,0.656250,-0.273926,0.704590
1762435489089620,4.573171,-6.097561,-0.060976,0.656250,-0.273926,0.706543
1762435489099535,2.073171,-4.817073,1.280488,0.657227,-0.273926,0.708496
1762435489109450,2.865854,-4.024390,0.670732,0.659180,-0.274902,0.710938
1762435489119365,3.414634,-3.231707,1.646342,0.660645,-0.275879,0.713867
1762435489129280,6.524390,-3.719512,0.792683,0.661133,-0.277344,0.714355
1762435489139195,12.317074,-10.853659,-0.792683,0.662109,-0.281250,0.714844
1762435489149110,12.195122,-18.963415,7.926829,0.666016,-0.285645,0.716797
1762435489159025,15.243903,-22.682928,16.707317,0.669922,-0.291504,0.718750
1762435489168940,23.170732,-22.134148,19.695122,0.671387,-0.296875,0.718262
1762435489178855,32.987804,-19.268293,16.890244,0.667969,-0.300293,0.713867
1762435489198685,56.707317,-33.048782,6.768293,0.648438,-0.310059,0.693848
1762435489208600,56.646343,-44.634148,20.670732,0.642578,-0.312012,0.687988
1762435489218515,42.195122,-48.536587,47.926830,0.644531,-0.308594,0.689941
1762435489228430,29.756098,-46.463417,63.658539,0.654297,-0.301270,0.697266
1762435489238344,44.451221,-37.073174,49.573174,0.668457,-0.304688,0.708984
1762435489248260,94.573174,-14.268293,18.780489,0.682129,-0.319336,0.720215
1762435489258174,147.317078,6.036585,7.317073,0.688477,-0.344238,0.724121
1762435489268089,192.256104,14.939025,23.231709,0.687988,-0.368164,0.719238
1762435489278005,191.524399,11.463415,65.182930,0.682617,-0.365723,0.708984
1762435489287919,167.865860,1.829268,87.073174,0.674316,-0.340820,0.698730
1762435489297834,156.585373,-4.695122,57.926830,0.666992,-0.295898,0.691895
1762435489307749,150.121948,-5.060976,-4.268293,0.661133,-0.247070,0.690430
1762435489317664,133.414642,-1.341463,-37.987804,0.655762,-0.220215,0.688477
1762435489327579,100.670731,-8.963415,-15.365854,0.654785,-0.213867,0.688965
1762435489337494,86.463417,-18.292683,12.256098,0.659668,-0.208008,0.694824
1762435489347409,79.024391,-21.097561,19.085367,0.666504,-0.185547,0.703125
1762435489357326,60.975613,-19.939024,13.475610,0.668945,-0.159668,0.708496
1762435489367239,43.658539,-21.707317,7.621952,0.666504,-0.143066,0.707520
1762435489377154,37.439026,-28.780489,5.792683,0.660645,-0.142090,0.703125
1762435489387069,47.682926,-38.719513,9.512196,0.652344,-0.147461,0.694824
1762435489396984,48.414635,-54.268295,16.158537,0.645020,-0.142578,0.686523
1762435489406900,42.012196,-69.695122,14.817074,0.638184,-0.124512,0.679199
1762435489416814,23.231709,-80.914635,12.865854,0.638184,-0.103027,0.674805
1762435489426729,-3.109756,-83.048782,19.329269,0.650391,-0.091309,0.681641
1762435489436644,-14.817074,-67.439026,22.743902,0.673340,-0.082520,0.698242
1762435489446559,-21.158537,-38.353661,21.585367,0.699219,-0.078613,0.718262
1762435489456474,-17.500000,-9.573171,17.134148,0.719238,-0.080566,0.733887
1762435489466389,-10.182927,12.012196,11.036586,0.728516,-0.075684,0.739746
1762435489476304,-18.841463,23.414635,5.000000,0.731934,-0.062500,0.740234
1762435489486219,-39.512196,28.780489,3.841464,0.731934,-0.051270,0.738770
1762435489496134,-58.719513,30.304878,3.963415,0.730957,-0.042969,0.735352
1762435489506049,-70.182930,24.939026,2.134146,0.728027,-0.039062,0.730957
1762435489515965,-70.243904,17.621952,-0.304878,0.724609,-0.039551,0.725098
1762435489525879,-68.353661,9.817074,-0.304878,0.721191,-0.037109,0.720703
1762435489535794,-70.853661,3.841464,-1.097561,0.722656,-0.033691,0.721680
1762435489545709,-67.012199,26.158537,-9.024390,0.741211,-0.028809,0.740234
1762435489565539,-71.646339,36.219513,-5.487805,0.728027,-0.049316,0.728516
1762435489575454,-71.585365,30.975611,-4.085366,0.718262,-0.055664,0.720703
1762435489585369,-80.975609,26.036587,1.158537,0.711426,-0.064941,0.714355
1762435489595284,-82.743904,18.902439,4.390244,0.702148,-0.076660,0.707031
1762435489605199,-79.024391,12.317074,3.780488,0.693848,-0.087891,0.699707
1762435489615114,-72.743904,8.353659,0.609756,0.687012,-0.099121,0.694336
1762435489625029,-60.914635,6.219512,-4.268293,0.680664,-0.111816,0.690430
1762435489634944,-48.658539,4.329268,-7.987805,0.675781,-0.121582,0.687500
1762435489644859,-41.097561,1.402439,-10.060976,0.671875,-0.127930,0.685547
1762435489654774,-38.048782,-2.378049,-12.134147,0.668945,-0.133301,0.683105
1762435489664689,-36.219513,-7.317073,-13.719513,0.668457,-0.139160,0.681641
1762435489674605,-35.182926,-12.195122,-13.170732,0.669434,-0.145508,0.680664
1762435489684519,-35.426830,-15.548780,-10.000000,0.672852,-0.152832,0.680664
1762435489694434,-33.414635,-15.731708,-6.341464,0.676758,-0.162598,0.681641
1762435489704349,-28.292683,-14.634147,-2.378049,0.682617,-0.173340,0.682617
1762435489714263,-24.634148,-16.463415,0.487805,0.689453,-0.180176,0.685059
1762435489724179,-16.280489,-20.121952,-8.902439,0.699707,-0.183105,0.691406
1762435489734094,-16.646341,-12.621951,-12.195122,0.703613,-0.184570,0.693359
1762435489744009,-22.378050,-5.060976,-4.939024,0.707031,-0.192383,0.693359
1762435489753924,-15.060976,-2.073171,-6.158537,0.712891,-0.196777,0.696289
1762435489763839,-20.670732,5.792683,-0.365854,0.719238,-0.199707,0.701660
1762435489773754,-19.024391,11.219513,2.865854,0.721680,-0.198730,0.704590
1762435489783669,-9.024390,16.707317,-14.024390,0.724609,-0.187012,0.708496
1762435489793584,-19.451220,21.219513,-24.573172,0.722656,-0.179688,0.707520
1762435489803499,-27.560976,18.841463,-27.073172,0.717285,-0.180176,0.703125
1762435489813414,-33.597561,14.512196,-19.451220,0.711426,-0.188477,0.697266
1762435489823329,-38.597561,10.121951,-1.951220,0.708008,-0.200195,0.692871
1762435489843159,-26.890245,2.926829,15.670732,0.714844,-0.213379,0.694824
1762435489853074,-15.670732,9.268293,1.280488,0.722168,-0.207031,0.701660
1762435489862989,-21.585367,19.085367,-10.609756,0.726562,-0.203613,0.706543
1762435489872903,-41.219513,23.536587,9.207317,0.725098,-0.220215,0.704102
1762435489882819,-9.268293,15.670732,-6.524390,0.720215,-0.223633,0.699219
1762435489892733,-15.121952,12.134147,-4.756098,0.714355,-0.224609,0.694336
1762435489902649,-23.414635,11.829268,5.304878,0.708984,-0.230469,0.689453
1762435489912564,-19.756098,8.841464,0.914634,0.708984,-0.229980,0.691406
1762435489922479,-30.000000,12.378049,12.195122,0.710938,-0.229980,0.693359
1762435489932394,-28.231709,16.036585,6.402439,0.714355,-0.226562,0.698242
1762435489942308,-29.390245,19.512196,3.841464,0.716309,-0.227051,0.702148
1762435489952223,-20.426830,21.036587,-1.707317,0.713379,-0.228516,0.703125
1762435489962139,-15.000000,20.731709,-6.829268,0.707520,-0.228516,0.699707
1762435489972053,-13.170732,16.524391,-11.280488,0.698730,-0.231445,0.694336
1762435489981968,-9.207317,10.487805,-15.121952,0.688477,-0.236816,0.687988
1762435490001798,-2.926829,-6.341464,-8.475610,0.666992,-0.252930,0.673340
1762435490011713,-0.914634,-17.804878,0.000000,0.662109,-0.262695,0.668945
1762435490021628,4.024390,-25.670732,8.536586,0.661621,-0.271484,0.668457
1762435490031543,8.841464,-28.414635,17.012196,0.665039,-0.277832,0.671387
1762435490041458,12.682927,-24.878050,22.073172,0.672363,-0.277832,0.677734
1762435490051374,10.365854,-17.317074,24.024391,0.679688,-0.274414,0.685059
1762435490061288,13.353659,-9.390244,16.341463,0.684570,-0.269043,0.689941
1762435490071203,15.487805,-4.451220,6.585366,0.685059,-0.262695,0.691406
1762435490081118,19.512196,-3.353659,-3.231707,0.683105,-0.262207,0.689453
1762435490091033,30.243904,-6.158537,-10.365854,0.679199,-0.265625,0.685547
1762435490100948,30.731709,-11.097561,-3.353659,0.676270,-0.270508,0.682129
1762435490110863,36.524391,-14.817074,3.658537,0.674316,-0.278809,0.679199
1762435490120778,45.121952,-18.353659,9.512196,0.672363,-0.282715,0.676270
1762435490130694,44.085365,-22.560976,17.256098,0.671875,-0.281738,0.673828
1762435490140609,41.463417,-23.719513,20.487804,0.673340,-0.277832,0.673828
1762435490160438,40.914635,-18.658537,13.109756,0.681641,-0.262695,0.679199
1762435490170353,32.926830,-15.731708,10.487805,0.686523,-0.252441,0.682617
1762435490180268,25.914635,-13.902439,5.731708,0.689941,-0.242676,0.685059
1762435490190183,22.073172,-13.292684,-1.219512,0.691406,-0.235840,0.686035
1762435490200098,21.951220,-8.475610,-4.207317,0.696289,-0.233398,0.689453
1762435490210014,20.609756,-5.000000,-4.390244,0.698730,-0.231934,0.690430
1762435490219928,22.804878,-4.756098,-6.219512,0.700195,-0.231445,0.690430
1762435490229844,26.890245,-3.109756,-7.073171,0.703125,-0.231445,0.690918
1762435490239758,26.890245,-3.292683,-7.987805,0.704102,-0.227051,0.690918
1762435490249673,23.841463,-3.170732,-7.256098,0.705078,-0.225586,0.690918
1762435490259588,25.182928,-3.414634,-7.439024,0.706055,-0.222656,0.690918
1762435490269503,23.719513,-3.658537,-5.670732,0.705566,-0.218750,0.690430
1762435490279418,21.097561,-3.414634,-5.182927,0.704590,-0.214355,0.689941
1762435490289333,17.500000,-2.317073,-4.207317,0.705566,-0.212891,0.690430
1762435490299248,18.109756,-1.890244,-4.390244,0.708008,-0.209961,0.690918
1762435490309163,14.207317,-1.829268,-3.353659,0.708984,-0.205566,0.690430
1762435490319078,8.719512,-1.463415,-2.134146,0.710938,-0.201172,0.690918
1762435490328993,1.707317,-1.158537,0.182927,0.711914,-0.195801,0.691406
1762435490338908,-7.560976,-1.036585,2.865854,0.712402,-0.191895,0.691895
1762435490348823,-9.695122,-2.134146,3.170732,0.712402,-0.188965,0.692383
1762435490358738,-14.390244,-3.719512,5.304878,0.713867,-0.186523,0.692871
1762435490368653,-17.865854,-4.878049,6.097561,0.715332,-0.184570,0.692871
1762435490378568,-20.365854,-5.426829,6.341464,0.715332,-0.184082,0.692383
1762435490388483,-19.817074,-5.121951,4.817073,0.714355,-0.186035,0.691406
1762435490398398,-16.585365,-4.512195,2.256098,0.712891,-0.188965,0.690430
1762435490408313,-12.500000,-4.634147,1.219512,0.711914,-0.193359,0.689453
1762435490418228,-7.926829,-5.060976,1.646342,0.710938,-0.194336,0.688477
1762435490428143,-9.573171,-5.304878,3.963415,0.710449,-0.192383,0.687500
1762435490438058,-13.780488,-5.060976,7.073171,0.710449,-0.190918,0.687012
1762435490447973,-17.317074,-4.207317,9.512196,0.710449,-0.189941,0.686523
1762435490457888,-17.682928,-3.109756,9.512196,0.711426,-0.190430,0.686523
1762435490467803,-15.670732,-1.219512,7.195122,0.713867,-0.189941,0.686523
1762435490477718,-14.756098,0.731707,4.268293,0.715820,-0.189453,0.686035
1762435490487633,-15.670732,1.280488,2.743902,0.717773,-0.191406,0.685547
1762435490497548,-9.268293,0.914634,0.487805,0.717285,-0.197266,0.684082
1762435490507463,0.487805,-0.121951,-1.951220,0.716797,-0.200195,0.682617
1762435490517378,3.597561,-0.609756,-1.951220,0.716309,-0.199707,0.682617
1762435490527293,0.000000,-0.792683,-0.182927,0.715820,-0.198730,0.682129
1762435490537208,-4.085366,-1.219512,3.414634,0.715332,-0.198730,0.681641
1762435490547123,-6.646342,-0.975610,5.060976,0.714355,-0.198730,0.681152
1762435490557038,-6.341464,-0.670732,4.512195,0.714355,-0.199707,0.680664
1762435490566953,-4.573171,-0.243902,3.414634,0.714844,-0.200195,0.679688
1762435490576868,-4.268293,0.182927,2.378049,0.715332,-0.200195,0.679688
1762435490586783,-3.902439,0.426829,1.829268,0.716309,-0.200684,0.679688
1762435490596698,-3.597561,0.000000,1.890244,0.716309,-0.201172,0.679199
1762435490606613,-3.963415,-0.792683,2.621951,0.717285,-0.201172,0.679199
1762435490616528,-5.182927,-1.524390,3.780488,0.716309,-0.201172,0.679199
1762435490626443,-6.524390,-1.768293,4.878049,0.715820,-0.201172,0.678711
1762435490636358,-7.804878,-1.097561,5.182927,0.715332,-0.201172,0.678711
1762435490646273,-7.865854,-0.548781,4.329268,0.715332,-0.202637,0.677734
1762435490656188,-6.097561,-0.487805,3.170732,0.715332,-0.204590,0.677246
1762435490666103,-4.756098,-0.609756,2.682927,0.715820,-0.206055,0.676758
1762435490676018,-5.548780,-0.609756,3.536585,0.715820,-0.206055,0.676758
1762435490685933,-8.048780,-0.426829,5.121951,0.716309,-0.205566,0.676758
1762435490695848,-10.792684,-0.060976,6.585366,0.716309,-0.205078,0.676758
1762435490705763,-11.097561,-0.304878,6.951220,0.716797,-0.205566,0.676758
1762435490715678,-9.695122,-0.853659,6.341464,0.717285,-0.206543,0.677246
1762435490725593,-9.329268,-1.158537,5.609756,0.717773,-0.207031,0.676758
1762435490735508,-9.451220,-1.280488,4.634147,0.717773,-0.208496,0.676270
1762435490745424,-8.170732,-1.280488,3.231707,0.717285,-0.211426,0.675293
1762435490755338,-5.426829,-0.914634,1.280488,0.717285,-0.214355,0.674316
1762435490765253,-1.646342,-0.609756,-0.853659,0.716797,-0.217773,0.673340
1762435490775168,0.975610,-0.792683,-0.914634,0.716309,-0.218262,0.672852
1762435490785083,-0.670732,-0.731707,0.609756,0.716309,-0.217773,0.673340
1762435490794998,-3.292683,-1.219512,2.804878,0.716309,-0.217285,0.673340
1762435490804913,-5.000000,-1.707317,4.634147,0.716309,-0.216309,0.673828
1762435490814828,-6.280488,-1.646342,5.426829,0.716797,-0.215332,0.673828
1762435490824743,-8.170732,-0.731707,4.817073,0.717285,-0.214844,0.674805
1762435490834658,-7.804878,0.121951,3.780488,0.717285,-0.215820,0.674316
1762435490844573,-6.890244,0.609756,3.109756,0.716309,-0.216797,0.673340
1762435490854488,-5.182927,0.731707,2.317073,0.716309,-0.219238,0.672852
1762435490864403,-3.048780,0.426829,2.073171,0.716309,-0.221191,0.671875
1762435490874318,-0.548781,-0.121951,1.829268,0.716309,-0.223633,0.671387
1762435490884233,0.914634,-1.036585,2.134146,0.717285,-0.224121,0.671387
1762435490894148,0.548781,-1.585366,2.621951,0.717285,-0.224609,0.670898
1762435490904063,1.463415,-1.768293,1.829268,0.717773,-0.226074,0.670898
1762435490913978,5.365854,-1.524390,-0.060976,0.717285,-0.228027,0.670898
1762435490923893,10.670732,-1.402439,-2.621951,0.717285,-0.229492,0.670410
1762435490933808,14.939025,-1.341463,-4.573171,0.717285,-0.230469,0.670898
1762435490943723,15.426829,-1.402439,-4.329268,0.717285,-0.228027,0.670898
1762435490953638,11.707317,-1.585366,-2.926829,0.717285,-0.226074,0.671875
1762435490963553,10.121951,-2.073171,-1.585366,0.717285,-0.225098,0.671875
1762435490973468,9.817074,-2.195122,0.243902,0.716797,-0.224121,0.671875
1762435490983383,14.817074,-1.646342,-1.341463,0.715820,-0.228027,0.671387
1762435490993298,27.134148,-2.621951,-3.963415,0.715820,-0.230469,0.670410
1762435491003213,31.585367,-3.536585,-4.573171,0.716797,-0.228027,0.670410
1762435491013128,26.585367,-2.865854,-4.573171,0.718750,-0.223633,0.671387
1762435491023043,19.451220,-1.585366,-4.085366,0.720215,-0.219727,0.671875
1762435491032958,15.243903,-1.036585,-3.170732,0.720703,-0.217773,0.672363
1762435491042873,11.402439,-0.731707,-0.792683,0.721191,-0.215820,0.672852
1762435491052788,9.207317,-0.914634,1.158537,0.720703,-0.214355,0.672852
1762435491062703,13.353659,-0.121951,0.182927,0.720215,-0.217773,0.673340
1762435491072618,26.585367,0.609756,-1.707317,0.721191,-0.224121,0.673340
1762435491082533,42.743904,1.219512,-0.853659,0.720703,-0.228516,0.672363
1762435491092448,19.573172,-6.158537,34.390244,0.715820,-0.248535,0.666016
1762435491102363,47.682926,-13.170732,36.585365,0.718750,-0.242188,0.667969
1762435491112279,51.707317,-5.914634,14.695123,0.724609,-0.219238,0.674805
1762435491122193,37.378048,2.378049,-5.487805,0.726562,-0.199707,0.678223
1762435491132108,23.231709,0.975610,-7.134147,0.723633,-0.197754,0.676270
1762435491142023,17.073172,-5.914634,3.780488,0.722168,-0.199219,0.674805
1762435491161853,11.158537,-7.621952,11.402439,0.725098,-0.186035,0.679199
1762435491171768,6.524390,-5.548780,6.951220,0.724121,-0.180176,0.679199
1762435491181683,12.500000,-6.097561,2.134146,0.721191,-0.186523,0.675781
1762435491191598,22.195122,-11.341464,5.792683,0.717285,-0.193359,0.671875
1762435491201513,27.439026,-14.756098,8.780488,0.714844,-0.192383,0.669434
1762435491211428,25.243902,-14.756098,6.097561,0.712402,-0.186523,0.667480
1762435491221343,20.000000,-16.158537,3.902439,0.709473,-0.182129,0.665039
1762435491231258,17.012196,-19.390244,4.207317,0.708008,-0.177734,0.662109
1762435491241173,12.865854,-25.000000,5.792683,0.710449,-0.173340,0.661621
1762435491251088,16.280489,-21.646341,3.475610,0.722656,-0.166016,0.671875
1762435491261003,7.256098,-11.402439,4.451220,0.731445,-0.162598,0.679199
1762435491270919,6.158537,-10.792684,5.365854,0.730469,-0.162109,0.677246
1762435491280833,10.609756,-13.536586,2.500000,0.729004,-0.157715,0.675781
1762435491290748,6.097561,-12.743903,-0.548781,0.730469,-0.153809,0.675781
1762435491300663,3.170732,-10.670732,-1.097561,0.731445,-0.153809,0.675293
1762435491320493,6.341464,-8.292683,-5.487805,0.733887,-0.152344,0.673828
1762435491330408,7.804878,-8.231708,-5.609756,0.735352,-0.151855,0.672852
1762435491340323,6.341464,-8.231708,-3.597561,0.736328,-0.149414,0.672363
1762435491350238,1.280488,-7.865854,-0.609756,0.736328,-0.145996,0.671875
1762435491360153,-4.085366,-7.134147,0.792683,0.736328,-0.143555,0.670898
1762435491370068,-7.926829,-5.365854,1.097561,0.737305,-0.142578,0.670410
1762435491379983,-11.219513,-2.865854,1.463415,0.738770,-0.142578,0.670410
1762435491389898,-14.634147,-0.243902,2.073171,0.740234,-0.142578,0.669922
1762435491399813,-16.524391,1.097561,2.682927,0.740234,-0.143066,0.668945
1762435491409728,-18.719513,1.585366,3.231707,0.741211,-0.142090,0.668457
1762435491419643,-22.682928,1.951220,3.902439,0.742676,-0.140137,0.667480
1762435491429559,-26.768293,1.402439,5.121951,0.743164,-0.138184,0.666992
1762435491439473,-29.756098,0.792683,5.975610,0.743652,-0.136719,0.666016
1762435491449388,-33.292683,0.731707,6.707317,0.744141,-0.136230,0.665527
1762435491459303,-35.060978,0.670732,7.134147,0.744141,-0.138184,0.664551
1762435491469217,-34.146343,0.609756,7.134147,0.744629,-0.141113,0.664062
1762435491479133,-32.987804,0.975610,7.439024,0.745117,-0.143555,0.663086
1762435491489048,-34.695122,1.829268,8.109756,0.746582,-0.145020,0.662598
1762435491498963,-36.707317,3.170732,7.560976,0.748535,-0.146973,0.662109
1762435491508878,-36.585365,4.390244,5.487805,0.749512,-0.149902,0.661133
1762435491518793,-34.817074,5.548780,3.170732,0.750977,-0.152344,0.660645
1762435491528708,-34.695122,7.134147,2.073171,0.752441,-0.153809,0.661133
1762435491538623,-35.670734,9.268293,0.975610,0.755371,-0.155273,0.662109
1762435491548538,-32.195122,14.512196,-4.268293,0.760254,-0.154785,0.665527
1762435491558453,-33.292683,22.560976,-11.463415,0.767578,-0.150391,0.671387
1762435491568368,-55.060978,25.487806,-12.134147,0.769531,-0.150391,0.670898
1762435491578283,-51.402439,18.841463,-3.353659,0.769043,-0.160645,0.670898
1762435491588199,-39.634148,13.841464,-2.682927,0.764648,-0.166016,0.668457
1762435491598113,-29.634148,21.707317,-8.658537,0.764648,-0.167480,0.672852
1762435491608028,-25.609756,37.012196,-19.634148,0.766113,-0.165039,0.678711
1762435491617943,-35.000000,41.280487,-20.060976,0.763184,-0.163574,0.677734
1762435491627857,-43.780487,36.951221,-13.780488,0.757324,-0.166016,0.674805
1762435491637773,-45.853661,31.890245,-7.865854,0.751465,-0.170410,0.671387
1762435491647688,-44.268295,27.560976,-7.560976,0.744629,-0.174316,0.667480
1762435491657603,-40.670734,23.170732,-11.097561,0.736328,-0.179688,0.661621
1762435491667518,-35.060978,17.682928,-15.060976,0.728027,-0.185059,0.655762
1762435491677433,-31.768293,11.646341,-15.426829,0.720215,-0.192383,0.650879
1762435491687348,-26.402439,5.000000,-13.780488,0.712891,-0.201660,0.646484
1762435491697263,-18.475611,-0.487805,-11.890244,0.708008,-0.208008,0.644043
1762435491707178,-18.109756,-3.719512,-8.536586,0.705078,-0.214355,0.643555
1762435491717093,-14.207317,-5.365854,-6.219512,0.703125,-0.220703,0.643555
1762435491727008,-10.243902,-6.707317,-5.121951,0.702148,-0.225098,0.644043
1762435491736923,-9.085366,-9.451220,-3.353659,0.701172,-0.229492,0.644043
1762435491746837,-7.621952,-12.804878,-1.524390,0.700684,-0.233887,0.644043
1762435491756753,-1.768293,-13.963415,-2.865854,0.701172,-0.238281,0.645020
1762435491766668,3.597561,-12.439025,-4.634147,0.702637,-0.238770,0.646973
1762435491776583,2.256098,-11.341464,-4.634147,0.704102,-0.238770,0.648438
1762435491786497,1.707317,-11.890244,-3.780488,0.706055,-0.239746,0.649902
1762435491796413,1.585366,-12.378049,-1.768293,0.708496,-0.240234,0.651367
1762435491806328,-0.853659,-12.439025,0.792683,0.711426,-0.239258,0.652832
1762435491816243,-1.585366,-12.865854,2.560976,0.714844,-0.238770,0.654297
1762435491826158,-1.768293,-13.231708,3.780488,0.718750,-0.237305,0.655273
1762435491836073,-3.719512,-13.658537,5.487805,0.721680,-0.235352,0.656250
1762435491845988,-5.609756,-14.024390,7.195122,0.723633,-0.233887,0.656250
1762435491855903,-6.829268,-14.878049,8.414635,0.724609,-0.233887,0.655762
1762435491865818,-5.792683,-15.792684,8.780488,0.724609,-0.235352,0.654297
1762435491875733,-3.353659,-16.036585,9.268293,0.725098,-0.236816,0.652344
1762435491885648,-2.804878,-15.853659,9.939025,0.724609,-0.237793,0.650879
1762435491895563,-0.487805,-15.304878,8.902439,0.725098,-0.239746,0.649414
1762435491915393,8.597561,-7.682927,-0.121951,0.733887,-0.238281,0.653320
1762435491925308,7.560976,-1.219512,-3.963415,0.739258,-0.233398,0.655762
1762435491935223,-1.890244,-1.890244,1.280488,0.738281,-0.231934,0.653809
1762435491945138,-1.524390,-4.634147,2.987805,0.738281,-0.233398,0.651855
1762435491955053,0.975610,-3.963415,2.743902,0.738281,-0.233887,0.651855
1762435491964968,-0.609756,-2.743902,2.439024,0.738281,-0.233398,0.650879
1762435491974883,-1.280488,-2.134146,1.463415,0.738281,-0.234375,0.649414
1762435491984798,-0.609756,-1.951220,0.670732,0.739258,-0.235840,0.648438
1762435491994713,0.731707,-2.073171,0.365854,0.739258,-0.237305,0.647461
1762435492004628,0.914634,-2.439024,0.975610,0.739746,-0.237793,0.646484
1762435492014543,0.731707,-2.804878,1.707317,0.739746,-0.238281,0.645508
1762435492024458,0.975610,-3.231707,2.621951,0.740234,-0.237793,0.644531
1762435492034374,1.219512,-3.231707,2.682927,0.740723,-0.236816,0.644531
1762435492044288,1.524390,-2.439024,1.890244,0.741699,-0.235840,0.644043
1762435492054203,1.890244,-1.707317,1.280488,0.741699,-0.234863,0.644043
1762435492064117,1.402439,-1.524390,1.280488,0.741699,-0.233887,0.643555
1762435492074033,0.487805,-1.402439,1.585366,0.742188,-0.233398,0.643555
1762435492083948,0.304878,-1.402439,1.707317,0.742188,-0.233887,0.643066
1762435492093863,0.365854,-1.158537,1.280488,0.742188,-0.234375,0.642578
1762435492103778,1.036585,-0.914634,0.487805,0.742676,-0.235352,0.642090
1762435492113693,1.707317,-0.487805,-0.243902,0.742676,-0.235352,0.641602
1762435492123608,0.914634,0.000000,-0.243902,0.742676,-0.235840,0.641113
1762435492133523,0.182927,-0.365854,1.280488,0.742676,-0.235840,0.640625
1762435492143438,-0.609756,-0.426829,2.865854,0.743164,-0.235352,0.640137
1762435492153353,-1.768293,-0.487805,4.146341,0.743164,-0.234375,0.640137
1762435492163268,-2.317073,-0.365854,5.060976,0.743164,-0.233887,0.640137
1762435492173184,-1.829268,-0.121951,5.365854,0.743164,-0.233398,0.639648
1762435492183098,-2.012195,0.060976,5.609756,0.743652,-0.232910,0.640137
1762435492193013,-3.536585,0.243902,6.524390,0.743164,-0.231934,0.640137
1762435492202928,-4.878049,0.487805,6.402439,0.743164,-0.232422,0.640137
1762435492212843,-4.207317,0.731707,5.304878,0.743652,-0.234375,0.639160
1762435492222757,-1.646342,0.487805,4.024390,0.743652,-0.236328,0.639160
1762435492232673,0.121951,-0.060976,3.536585,0.743652,-0.237305,0.639160
1762435492242588,0.548781,-0.670732,3.658537,0.743652,-0.238281,0.638672
1762435492252503,0.609756,-1.524390,4.695122,0.743652,-0.238281,0.638672
1762435492262418,-0.426829,-1.951220,5.792683,0.744141,-0.237305,0.638184
1762435492272333,-1.890244,-1.646342,6.219512,0.744629,-0.236328,0.638184
1762435492282248,-3.658537,-0.792683,6.097561,0.744629,-0.235840,0.638184
1762435492292163,-3.597561,0.000000,5.121951,0.744629,-0.236816,0.637207
1762435492302078,-1.829268,0.792683,3.597561,0.745117,-0.237305,0.637207
1762435492311993,-1.768293,1.036585,2.865854,0.745117,-0.237793,0.637207
1762435492321908,-1.890244,0.609756,2.500000,0.745117,-0.239258,0.636719
1762435492331823,-1.768293,0.060976,2.317073,0.744629,-0.240234,0.636719
1762435492341738,-1.585366,-0.487805,2.378049,0.744141,-0.241699,0.637207
1762435492351653,-1.646342,-1.280488,2.743902,0.743164,-0.242188,0.637207
1762435492361568,0.792683,-1.280488,1.707317,0.743164,-0.241699,0.638184
1762435492371483,2.987805,0.365854,-1.646342,0.741699,-0.242188,0.638184
1762435492381398,6.341464,1.707317,-4.573171,0.742188,-0.242676,0.638184
1762435492391313,6.280488,0.975610,-4.695122,0.743164,-0.240723,0.637695
1762435492401228,-0.792683,-2.804878,1.402439,0.745117,-0.236328,0.638672
1762435492411143,-8.902439,-4.329268,7.012195,0.744629,-0.236328,0.638184
1762435492421058,-7.439024,-4.024390,6.341464,0.744141,-0.237793,0.637207
1762435492430973,-3.597561,-1.890244,3.292683,0.743164,-0.238281,0.637207
1762435492440888,-2.256098,-0.365854,1.097561,0.743164,-0.239258,0.637207
1762435492450803,-0.060976,0.243902,-0.609756,0.743652,-0.240723,0.636719
1762435492460718,2.134146,0.121951,-1.280488,0.743652,-0.242188,0.636230
1762435492470633,2.621951,-0.609756,-0.304878,0.743652,-0.243164,0.635254
1762435492480548,2.256098,-1.646342,0.914634,0.743652,-0.242188,0.636230
1762435492490463,-1.768293,-2.560976,4.207317,0.743652,-0.239746,0.636719
1762435492500378,-6.890244,-3.719512,6.646342,0.744141,-0.238281,0.637207
1762435492510294,-8.414635,-3.902439,6.768293,0.744141,-0.238770,0.637207
1762435492520208,-6.463415,-3.353659,4.634147,0.743652,-0.239746,0.637207
1762435492530123,-4.268293,-2.256098,2.012195,0.743652,-0.240234,0.637207
1762435492540038,-2.560976,-1.402439,0.121951,0.743652,-0.240723,0.636719
1762435492549954,-2.134146,-0.914634,-0.121951,0.743652,-0.240723,0.636719
1762435492559869,-3.597561,-1.097561,1.036585,0.743652,-0.240723,0.636230
1762435492569783,-4.878049,-1.585366,2.560976,0.744141,-0.240234,0.636230
1762435492579698,-5.914634,-2.012195,3.353659,0.744141,-0.240234,0.636230
1762435492599528,-5.731708,-2.621951,3.780488,0.743652,-0.241211,0.635254
1762435492609443,-5.304878,-3.231707,4.085366,0.743164,-0.241699,0.635254
1762435492619358,-4.695122,-3.719512,3.841464,0.743164,-0.242188,0.635254
1762435492629273,-3.536585,-3.658537,2.682927,0.744629,-0.242676,0.635254
1762435492639188,-2.560976,-1.524390,0.853659,0.745117,-0.242188,0.634277
1762435492649104,-4.390244,-0.731707,1.646342,0.745605,-0.241699,0.633789
1762435492659018,-5.243903,0.000000,2.439024,0.746094,-0.242188,0.632812
1762435492668933,-5.975610,0.121951,3.353659,0.746582,-0.242188,0.632324
1762435492678848,-6.341464,-0.243902,3.780488,0.746582,-0.243164,0.631348
1762435492688763,-6.036585,-1.158537,4.024390,0.747070,-0.243652,0.631348
1762435492698678,-6.036585,-1.158537,3.719512,0.746582,-0.244141,0.631348
1762435492708594,-5.182927,-0.670732,2.378049,0.746094,-0.245605,0.630859
1762435492718508,-2.926829,-0.365854,0.914634,0.746094,-0.247070,0.631348
1762435492728423,-1.280488,-0.121951,-0.548781,0.746094,-0.248047,0.630859
1762435492738338,-0.487805,0.121951,-1.829268,0.746094,-0.248047,0.630859
1762435492758168,1.158537,3.658537,-6.158537,0.747559,-0.244141,0.632324
1762435492768083,2.378049,6.219512,-10.731708,0.748535,-0.241211,0.632812
1762435492777998,3.597561,8.719512,-15.365854,0.748535,-0.238281,0.633789
1762435492787913,4.451220,10.548780,-19.085367,0.749023,-0.235840,0.634766
1762435492797829,7.256098,14.329268,-26.341465,0.749512,-0.231934,0.636719
1762435492807743,8.841464,20.975611,-36.463417,0.749512,-0.224609,0.638672
1762435492817658,1.402439,25.121952,-39.085365,0.748047,-0.219238,0.639648
1762435492827573,-3.719512,27.378050,-37.926830,0.747070,-0.215820,0.641602
1762435492837488,-7.560976,30.426830,-35.670734,0.746094,-0.212891,0.643066
1762435492847403,-12.500000,31.585367,-31.890245,0.745117,-0.211914,0.644043
1762435492857318,-15.304878,32.256100,-29.085367,0.745117,-0.212402,0.645508
1762435492867234,-14.268293,35.548782,-30.060976,0.743164,-0.213867,0.646973
1762435492877148,-11.829268,38.109756,-31.524391,0.741211,-0.215820,0.646973
1762435492887063,-9.939025,38.170734,-29.756098,0.740234,-0.218262,0.646973
1762435492896978,-58.963417,9.329268,12.804878,0.731934,-0.252441,0.637695
1762435492916808,14.756098,0.548781,5.548780,0.729980,-0.239258,0.641602
1762435492926723,13.109756,13.841464,-14.817074,0.737305,-0.225586,0.650879
1762435492936638,1.463415,21.768293,-25.121952,0.734863,-0.223145,0.650391
1762435492946553,4.024390,18.719513,-23.719513,0.733398,-0.230957,0.650391
1762435492956469,10.914635,15.243903,-21.341463,0.732910,-0.232422,0.651367
1762435492966383,6.768293,11.280488,-16.341463,0.732422,-0.230957,0.652832
1762435492976298,2.560976,7.926829,-11.402439,0.731445,-0.229492,0.654785
1762435492986214,0.853659,5.365854,-8.414635,0.729980,-0.227539,0.656738
1762435492996128,2.073171,5.731708,-8.658537,0.728516,-0.222656,0.659180
1762435493006043,1.524390,7.256098,-9.878049,0.728027,-0.217773,0.661621
1762435493015958,2.012195,7.743903,-10.365854,0.726562,-0.214355,0.663574
1762435493035788,-1.341463,6.768293,-7.256098,0.725098,-0.203125,0.668945
1762435493045703,-3.231707,6.707317,-8.353659,0.724121,-0.198730,0.671387
1762435493055618,-2.865854,7.439024,-11.158537,0.723145,-0.195312,0.672852
1762435493065533,-1.158537,8.719512,-14.451220,0.722168,-0.192383,0.674316
1762435493075448,-1.524390,10.182927,-16.707317,0.720703,-0.190918,0.675781
1762435493085363,-2.195122,10.365854,-16.829269,0.720215,-0.191406,0.676270
1762435493095278,-2.195122,9.329268,-14.939025,0.720215,-0.194336,0.676758
1762435493105193,-0.853659,7.256098,-12.256098,0.719238,-0.197266,0.675781
1762435493115108,0.548781,4.512195,-8.231708,0.719238,-0.200195,0.675781
1762435493125023,2.560976,1.829268,-4.512195,0.719238,-0.199707,0.676270
1762435493134938,2.682927,0.060976,-1.768293,0.719238,-0.196289,0.678223
1762435493144853,0.426829,-0.609756,-0.365854,0.718262,-0.191895,0.679688
1762435493154769,-1.158537,-1.158537,0.365854,0.716797,-0.189453,0.682129
1762435493164684,-0.792683,-1.585366,0.243902,0.715332,-0.186035,0.683594
1762435493174599,0.121951,-1.463415,-1.646342,0.714355,-0.184570,0.685059
1762435493194428,5.304878,0.975610,-8.780488,0.713379,-0.182129,0.686523
1762435493204343,6.768293,2.743902,-10.731708,0.712402,-0.181152,0.687500
1762435493214258,6.646342,3.475610,-10.182927,0.712402,-0.181152,0.687500
1762435493224173,6.280488,2.743902,-6.829268,0.712402,-0.179688,0.687500
1762435493234088,3.109756,0.975610,-0.609756,0.711914,-0.177734,0.686035
1762435493244003,-26.524391,-7.256098,25.182928,0.700195,-0.188477,0.674316
1762435493253918,2.134146,-21.890244,39.329269,0.700684,-0.206055,0.675293
1762435493263833,14.024390,-22.256098,36.036587,0.700684,-0.195801,0.675781
1762435493273749,9.390244,-17.256098,28.658537,0.705566,-0.187500,0.681152
1762435493283664,12.012196,-9.756098,14.573171,0.711426,-0.179199,0.686523
1762435493293578,16.341463,-1.463415,-1.219512,0.715820,-0.168457,0.692383
1762435493303494,7.378049,2.500000,-4.695122,0.716309,-0.164551,0.694336
1762435493313409,7.926829,4.024390,-6.524390,0.716309,-0.162109,0.695312
1762435493323324,6.219512,3.719512,-5.182927,0.715820,-0.162109,0.695312
1762435493333239,5.000000,3.536585,-4.085366,0.715332,-0.162598,0.695312
1762435493353069,-4.878049,1.158537,2.926829,0.712402,-0.159668,0.690430
1762435493362984,-20.487804,-12.987805,26.097561,0.707520,-0.177246,0.684570
1762435493372899,10.121951,-13.719513,19.268293,0.710449,-0.173828,0.686035
1762435493382813,6.890244,-9.878049,14.695123,0.714355,-0.169434,0.689453
1762435493392729,8.597561,-2.012195,1.890244,0.717773,-0.162598,0.692383
1762435493402644,6.585366,1.707317,-1.463415,0.718750,-0.158691,0.693848
1762435493412559,1.036585,1.707317,0.243902,0.718262,-0.156738,0.693848
1762435493422474,-1.646342,-0.060976,3.048780,0.718262,-0.156250,0.694336
1762435493432389,-3.780488,-0.975610,4.634147,0.717285,-0.155273,0.694824
1762435493442304,-5.426829,-0.670732,4.878049,0.717285,-0.155273,0.694824
1762435493452219,-5.609756,-0.548781,4.573171,0.716797,-0.156250,0.694336
1762435493462134,-4.573171,-0.609756,3.536585,0.716797,-0.157227,0.693848
1762435493472049,-3.536585,0.060976,1.646342,0.716309,-0.158691,0.693359
1762435493481964,-1.951220,0.548781,0.243902,0.716309,-0.160156,0.692871
1762435493491879,-0.975610,1.097561,-0.670732,0.716309,-0.160156,0.692871
1762435493501793,-0.548781,1.463415,-1.158537,0.715820,-0.160156,0.692871
1762435493511709,-0.609756,1.280488,-0.731707,0.715820,-0.160156,0.692871
1762435493521624,-0.853659,0.853659,-0.060976,0.715820,-0.159180,0.692871
1762435493531539,-2.317073,0.426829,0.914634,0.715332,-0.158691,0.692871
1762435493541454,-3.109756,0.121951,1.341463,0.715332,-0.158691,0.692871
1762435493551369,-2.804878,0.000000,1.219512,0.715332,-0.159668,0.692871
1762435493561284,-2.500000,0.060976,0.731707,0.715820,-0.159668,0.692871
1762435493571199,-2.134146,0.060976,0.365854,0.715820,-0.160156,0.692383
1762435493581114,-1.585366,0.060976,0.182927,0.715332,-0.160156,0.692383
1762435493591029,-1.280488,-0.060976,0.365854,0.715332,-0.160156,0.692383
1762435493600944,-2.621951,-0.060976,1.097561,0.715332,-0.159180,0.692871
1762435493610859,-4.329268,-0.243902,2.073171,0.715332,-0.158203,0.692871
1762435493620774,-5.426829,-0.121951,2.378049,0.715332,-0.158691,0.692871
1762435493630689,-5.914634,0.243902,2.378049,0.715332,-0.158691,0.692871
1762435493640604,-7.073171,1.036585,2.317073,0.715332,-0.158203,0.692871
1762435493650519,-9.756098,2.134146,2.256098,0.715332,-0.158203,0.692871
1762435493660433,-10.548780,2.621951,1.951220,0.715332,-0.159180,0.692871
1762435493670349,-11.707317,3.048780,1.951220,0.715332,-0.159180,0.692871
1762435493680264,-12.317074,2.926829,2.256098,0.715332,-0.159180,0.692871
1762435493690179,-12.012196,2.317073,3.048780,0.715332,-0.159668,0.692871
1762435493700094,-15.000000,2.073171,5.243903,0.715332,-0.157715,0.693848
1762435493710009,-23.170732,3.048780,8.902439,0.715820,-0.154785,0.694824
1762435493719924,-34.512196,4.573171,13.414635,0.716797,-0.152344,0.695801
1762435493729839,-47.743904,6.707317,18.170732,0.717773,-0.148926,0.696289
1762435493739754,-63.170734,10.548780,23.231709,0.719727,-0.144531,0.698730
1762435493749669,-85.609756,17.560976,30.914635,0.724121,-0.142090,0.703125
1762435493759584,-95.670731,29.817074,37.256100,0.735840,-0.151367,0.714355
1762435493769500,-38.841465,63.048782,-10.426829,0.759766,-0.146973,0.736816
1762435493779415,-37.317074,89.268295,-35.670734,0.764160,-0.141602,0.741699
1762435493789329,-46.036587,82.500000,-34.939026,0.754395,-0.150391,0.733887
1762435493799244,-47.804878,64.085365,-24.268293,0.738281,-0.161133,0.722656
1762435493809159,-55.487804,57.682930,-5.548780,0.722656,-0.169434,0.712402
1762435493819074,-69.451218,54.512196,10.121951,0.711426,-0.174316,0.705566
1762435493828990,-68.658539,49.573174,5.609756,0.703613,-0.176758,0.702148
1762435493838904,-67.195122,48.719513,-5.426829,0.697266,-0.176270,0.700195
1762435493848819,-71.829269,52.073174,-13.109756,0.688965,-0.178711,0.698242
1762435493858734,-67.134148,46.951221,-21.707317,0.679688,-0.186035,0.695312
1762435493868649,-64.146339,37.621952,-21.890244,0.671387,-0.195312,0.692871
1762435493878564,-64.451218,32.256100,-15.000000,0.664062,-0.206055,0.692383
1762435493888479,-63.170734,29.695122,-9.329268,0.656250,-0.215332,0.690430
1762435493898394,-59.207317,22.621952,-9.695122,0.648926,-0.223633,0.687988
1762435493908309,-49.207317,9.817074,-14.695123,0.643066,-0.233887,0.686035
1762435493918224,-41.219513,0.365854,-15.548780,0.637695,-0.245117,0.684570
1762435493928139,-35.426830,-6.097561,-11.158537,0.635254,-0.257324,0.685547
1762435493938054,-29.390245,-7.682927,-5.121951,0.634277,-0.269531,0.688477
1762435493947969,-20.365854,-7.682927,-2.378049,0.634766,-0.279297,0.691895
1762435493957885,-11.036586,-9.085366,-2.195122,0.633789,-0.286133,0.694336
1762435493967800,-8.475610,-12.073171,0.121951,0.632324,-0.289551,0.696289
1762435493977714,-6.402439,-15.975610,0.304878,0.631348,-0.292480,0.697754
1762435493987630,-2.378049,-19.634148,-1.646342,0.629883,-0.294922,0.698730
1762435493997544,1.646342,-23.719513,-2.621951,0.628906,-0.298828,0.698730
1762435494007459,4.939024,-27.439026,-0.792683,0.628906,-0.302734,0.699219
1762435494017374,11.524390,-28.292683,0.365854,0.632324,-0.309082,0.703125
1762435494027289,30.975611,-12.073171,-4.817073,0.646973,-0.313477,0.718262
1762435494037204,31.707317,-4.756098,-6.951220,0.644043,-0.310547,0.714844
1762435494047119,31.646341,-7.621952,-6.707317,0.644043,-0.310059,0.715332
1762435494057034,31.036587,-6.951220,-4.451220,0.644531,-0.309082,0.716309
1762435494066949,15.609756,-10.365854,6.341464,0.640137,-0.307129,0.712402
1762435494076864,14.817074,-13.719513,12.134147,0.642090,-0.309570,0.713867
1762435494086779,17.560976,-12.256098,9.939025,0.643066,-0.305176,0.715332
1762435494096694,18.475611,-9.939025,5.060976,0.645508,-0.299316,0.717773
1762435494106610,18.109756,-7.743903,0.426829,0.646973,-0.296387,0.719727
1762435494116524,19.329269,-6.951220,-3.048780,0.647949,-0.293945,0.720215
1762435494126440,17.317074,-7.256098,-2.804878,0.647949,-0.293457,0.719727
1762435494136355,17.500000,-7.012195,-2.987805,0.648438,-0.292969,0.718750
1762435494146270,17.012196,-7.743903,-1.707317,0.648438,-0.293945,0.717773
1762435494156185,18.048780,-8.780488,-0.731707,0.648926,-0.294434,0.716797
1762435494166099,18.780489,-9.634147,0.365854,0.649414,-0.293457,0.715820
1762435494176014,16.768293,-9.268293,2.134146,0.649902,-0.290039,0.715820
1762435494195845,1.829268,-8.536586,7.987805,0.650879,-0.282227,0.716797
1762435494205759,0.121951,-9.756098,9.756098,0.650879,-0.281250,0.717285
1762435494215675,1.341463,-10.548780,10.182927,0.651367,-0.280273,0.717285
1762435494225590,-0.365854,-10.060976,10.304878,0.652344,-0.278320,0.717285
1762435494235504,-1.158537,-9.451220,9.329268,0.652832,-0.278809,0.716309
1762435494245419,1.463415,-8.902439,8.231708,0.653809,-0.279785,0.715332
1762435494255334,4.024390,-8.170732,6.951220,0.654785,-0.280762,0.714355
1762435494265249,7.926829,-7.865854,4.817073,0.655762,-0.281738,0.713379
1762435494275165,10.975610,-7.926829,4.024390,0.657227,-0.282227,0.712402
1762435494285079,10.792684,-8.292683,5.121951,0.658203,-0.280762,0.711914
1762435494294995,7.560976,-9.512196,7.682927,0.657715,-0.279297,0.711914
1762435494304911,10.060976,-9.268293,6.951220,0.658203,-0.279297,0.711426
1762435494314825,13.109756,-8.475610,4.207317,0.660156,-0.277344,0.711914
1762435494324740,14.451220,-8.048780,1.768293,0.660645,-0.275391,0.711914
1762435494334654,15.060976,-8.414635,0.975610,0.661133,-0.274902,0.711426
1762435494354485,20.182928,-9.573171,-0.426829,0.661621,-0.274414,0.710449
1762435494364399,22.865854,-10.487805,-0.731707,0.662109,-0.273926,0.710449
1762435494374315,24.207317,-11.524390,0.182927,0.663574,-0.270508,0.710938
1762435494384230,18.292683,-11.158537,2.621951,0.664551,-0.263672,0.712402
1762435494394145,7.195122,-9.390244,4.939024,0.665527,-0.257812,0.712402
1762435494404060,2.743902,-7.560976,4.756098,0.666016,-0.256836,0.712402
1762435494413975,3.780488,-6.341464,3.231707,0.666992,-0.255371,0.712402
1762435494423890,-2.256098,-8.963415,6.951220,0.666016,-0.255371,0.710449
1762435494433805,-0.365854,-11.097561,8.841464,0.667969,-0.255859,0.710938
1762435494443720,0.548781,-8.963415,7.073171,0.669922,-0.255859,0.709961
1762435494453635,2.865854,-6.951220,4.207317,0.670410,-0.255859,0.708496
1762435494463551,2.500000,-5.853659,3.902439,0.671875,-0.254883,0.708008
1762435494473465,1.280488,-6.280488,4.512195,0.672852,-0.253906,0.707520
1762435494483380,-0.792683,-7.500000,6.463415,0.672852,-0.251953,0.707031
1762435494493295,-3.902439,-9.085366,9.268293,0.673828,-0.251465,0.706543
1762435494503210,-3.658537,-10.426829,10.609756,0.674316,-0.251953,0.706543
1762435494513125,-3.048780,-10.975610,10.365854,0.675293,-0.251465,0.705566
1762435494523040,-0.975610,-10.243902,8.170732,0.675293,-0.252930,0.704590
1762435494532955,1.219512,-9.451220,5.975610,0.675781,-0.253418,0.703613
1762435494542870,1.097561,-10.000000,5.609756,0.675781,-0.254395,0.702637
1762435494552785,-0.060976,-12.621951,7.317073,0.676270,-0.256348,0.701172
1762435494562700,-0.670732,-16.524391,10.548780,0.678223,-0.258301,0.699219
1762435494572615,-2.378049,-21.341463,13.841464,0.681152,-0.261719,0.696777
1762435494582530,-1.646342,-27.865854,17.804878,0.683105,-0.264160,0.693848
1762435494592445,-4.939024,-34.878048,24.756098,0.684570,-0.263184,0.691406
1762435494602360,-12.256098,-41.524391,32.621952,0.686523,-0.262695,0.689453
1762435494612275,-16.097561,-45.304878,36.097561,0.687988,-0.264160,0.687012
1762435494632105,-6.402439,-32.926830,23.902439,0.694336,-0.264160,0.684570
1762435494642020,-1.951220,-22.073172,11.585366,0.698242,-0.262695,0.683594
1762435494651935,-0.914634,-13.475610,5.000000,0.704102,-0.259766,0.685547
1762435494661850,-7.621952,-5.304878,7.378049,0.714844,-0.253906,0.692383
1762435494671765,-22.195122,7.439024,14.512196,0.730469,-0.244629,0.702637
1762435494681680,-38.780487,25.243902,19.512196,0.752930,-0.234375,0.719238
1762435494691595,-46.768295,40.853661,3.780488,0.777832,-0.225098,0.739746
1762435494701510,-47.926830,76.463417,-5.487805,0.788574,-0.215820,0.750488
1762435494711425,-41.219513,78.963417,-20.609756,0.783203,-0.215332,0.746094
1762435494721340,-36.097561,65.000000,-30.121952,0.766602,-0.215820,0.731934
1762435494731255,-46.768295,50.548782,-21.829269,0.743164,-0.224121,0.711914
1762435494741170,-53.658539,30.182928,-8.292683,0.719238,-0.239258,0.691895
1762435494751085,-60.792683,24.878050,16.768293,0.703125,-0.266602,0.680176
1762435494761001,-29.756098,24.817074,18.292683,0.690918,-0.288574,0.669922
1762435494770915,-8.475610,23.048780,7.743903,0.676758,-0.292480,0.661621
1762435494790745,-6.219512,12.621951,-3.109756,0.646484,-0.302734,0.645996
1762435494800660,-1.524390,6.463415,-1.890244,0.638672,-0.308594,0.645020
1762435494810575,2.560976,1.951220,-4.024390,0.633301,-0.311035,0.644531
1762435494820490,8.536586,-4.146341,-9.390244,0.628418,-0.310547,0.644531
1762435494830405,10.304878,-9.024390,-13.292684,0.626465,-0.308105,0.646973
1762435494840321,4.451220,-13.170732,-12.987805,0.626465,-0.306641,0.648926
1762435494850235,3.597561,-19.451220,-9.146341,0.626465,-0.308105,0.651367
1762435494860150,7.682927,-21.768293,-11.158537,0.626953,-0.305664,0.653809
1762435494870065,8.109756,-22.500000,-15.121952,0.628906,-0.303223,0.654785
1762435494879980,10.914635,-21.951220,-20.731709,0.631348,-0.304688,0.654785
1762435494889895,13.719513,-22.256098,-23.170732,0.632812,-0.309570,0.652344
1762435494899811,17.804878,-25.975611,-19.695122,0.635742,-0.318359,0.648926
1762435494909726,17.926830,-27.560976,-9.756098,0.642578,-0.323730,0.648926
1762435494919641,9.878049,-27.134148,2.378049,0.650879,-0.327148,0.648926
1762435494929555,5.243903,-31.646341,11.463415,0.658691,-0.329102,0.649414
1762435494949386,11.036586,-34.756100,16.219513,0.674805,-0.325684,0.656250
1762435494959301,16.768293,-29.573172,10.548780,0.683594,-0.320312,0.661621
1762435494969215,22.926830,-19.573172,0.304878,0.698730,-0.312988,0.673340
1762435494979130,13.231708,-13.536586,5.975610,0.705078,-0.304199,0.677734
1762435494989046,4.268293,-15.853659,11.585366,0.701660,-0.302734,0.672852
1762435494998961,8.658537,-18.292683,8.841464,0.698242,-0.305176,0.668945
1762435495008876,16.036585,-16.341463,4.207317,0.698242,-0.309570,0.666016
1762435495018791,26.402439,-14.024390,-0.670732,0.699707,-0.316406,0.663574
1762435495028706,36.768295,-13.597561,-4.390244,0.702148,-0.322754,0.660645
1762435495038621,46.585365,-15.182927,-5.487805,0.704102,-0.330566,0.656738
1762435495048536,59.268295,-20.243902,-0.365854,0.705566,-0.334473,0.653320
1762435495058451,61.585369,-26.829269,9.573171,0.707520,-0.330078,0.651367
1762435495068366,52.926830,-31.036587,19.268293,0.709961,-0.322266,0.651367
1762435495078281,44.024391,-32.317074,24.390244,0.711426,-0.313965,0.651367
1762435495088196,38.963417,-31.097561,24.451220,0.712891,-0.305664,0.652832
1762435495098110,37.012196,-26.768293,19.695122,0.714355,-0.297363,0.654785
1762435495108026,36.463417,-20.609756,12.682927,0.715332,-0.289062,0.655762
1762435495117941,34.817074,-14.207317,5.304878,0.717285,-0.280762,0.656738
1762435495127856,24.634148,-13.475610,4.390244,0.718262,-0.275391,0.655762
1762435495137771,18.170732,-18.292683,10.000000,0.722656,-0.269043,0.655762
1762435495147686,7.256098,-24.817074,20.243902,0.725098,-0.261719,0.653809
1762435495157601,-8.414635,-29.573172,31.707317,0.727051,-0.258789,0.651367
1762435495167516,-12.987805,-31.158537,35.365856,0.727539,-0.261230,0.648438
1762435495177431,-5.792683,-31.280489,33.231709,0.728516,-0.264160,0.646484
1762435495187346,-1.463415,-30.121952,30.914635,0.729980,-0.264160,0.644531
1762435495197261,-0.243902,-27.682928,28.292683,0.730957,-0.264160,0.643066
1762435495207176,2.804878,-24.207317,24.451220,0.732422,-0.264160,0.642090
1762435495217091,5.731708,-20.487804,20.182928,0.733398,-0.262695,0.641113
1762435495227006,6.585366,-16.768293,16.463415,0.734863,-0.259277,0.641113
1762435495236921,6.036585,-12.743903,12.500000,0.736328,-0.256348,0.641113
1762435495246836,5.670732,-9.146341,8.841464,0.737793,-0.254395,0.640625
1762435495256751,5.731708,-6.646342,6.158537,0.738770,-0.252441,0.640137
1762435495266667,5.000000,-5.121951,4.634147,0.740234,-0.250977,0.639160
1762435495276581,4.268293,-3.719512,3.780488,0.741211,-0.250000,0.638184
1762435495286496,5.182927,-2.317073,1.768293,0.742676,-0.250977,0.636719
1762435495296411,8.963415,-1.158537,-1.463415,0.744141,-0.252930,0.634277
1762435495306326,12.317074,-0.182927,-4.268293,0.745117,-0.254395,0.632324
1762435495316241,13.353659,0.487805,-5.975610,0.746094,-0.255859,0.630371
1762435495326156,13.292684,1.097561,-6.890244,0.747070,-0.256836,0.628906
1762435495336071,12.987805,1.341463,-6.768293,0.747559,-0.256836,0.627441
1762435495345986,10.121951,0.609756,-4.817073,0.748047,-0.255859,0.626465
1762435495355901,6.585366,-0.487805,-2.134146,0.749023,-0.255371,0.625488
1762435495365816,4.451220,-0.975610,-0.365854,0.749023,-0.254395,0.625000
1762435495375731,4.451220,-0.365854,-0.548781,0.749023,-0.253906,0.624512
1762435495385646,5.487805,0.731707,-1.829268,0.750000,-0.253418,0.624512
1762435495395561,6.707317,1.341463,-2.865854,0.750488,-0.254395,0.623535
1762435495405476,9.268293,1.402439,-3.597561,0.750977,-0.254883,0.623047
1762435495415391,11.402439,1.402439,-4.390244,0.751465,-0.255371,0.622559
1762435495425307,12.378049,1.219512,-4.878049,0.751953,-0.254883,0.622070
1762435495435221,12.682927,0.914634,-5.426829,0.752441,-0.254395,0.621582
1762435495445136,13.353659,0.243902,-5.792683,0.753418,-0.253906,0.621094
1762435495455051,12.804878,-0.426829,-5.243903,0.753418,-0.251953,0.621094
1762435495474882,20.548780,-5.670732,-8.353659,0.751953,-0.256836,0.618164
1762435495484796,45.304878,-16.402439,-17.804878,0.749023,-0.265137,0.612793
1762435495494711,63.719513,-44.756100,-25.121952,0.746582,-0.264160,0.605469
1762435495504627,62.439026,-75.548782,-26.707317,0.748535,-0.261230,0.601562
1762435495514543,61.219513,-94.573174,-25.060976,0.750488,-0.256348,0.599121
1762435495524457,59.268295,-101.524391,-23.048780,0.753906,-0.247070,0.598145
1762435495534372,48.963417,-102.926834,-22.134148,0.760254,-0.239258,0.602539
1762435495544287,44.085365,-81.585365,-18.658537,0.765137,-0.234863,0.600586
1762435495554202,44.634148,-69.634148,-17.987804,0.770996,-0.226562,0.601074
1762435495564117,32.317074,-51.219513,-14.878049,0.778320,-0.214355,0.602051
1762435495574032,14.268293,-25.670732,-7.682927,0.787598,-0.202148,0.604980
1762435495583946,-6.097561,3.170732,1.158537,0.794434,-0.189941,0.604492
1762435495593862,-19.146341,17.865854,8.353659,0.799316,-0.184082,0.602051
1762435495603777,-23.170732,28.780489,12.012196,0.809570,-0.184570,0.605469
1762435495613692,-21.585367,48.597561,8.597561,0.801758,-0.182617,0.596680
1762435495633522,-14.756098,72.987808,7.195122,0.807129,-0.187012,0.597656
1762435495643437,-11.097561,75.060974,5.853659,0.805176,-0.186523,0.593750
1762435495653352,-12.682927,71.524391,7.500000,0.805664,-0.183105,0.592773
1762435495663267,-16.463415,63.658539,8.902439,0.804199,-0.180664,0.591797
1762435495673182,-21.402439,54.329269,10.487805,0.802734,-0.176758,0.590820
1762435495683098,-27.987806,41.524391,15.121952,0.801758,-0.171875,0.591797
1762435495693012,-37.195122,33.292683,19.085367,0.799805,-0.166504,0.593750
1762435495702928,-45.182926,30.000000,18.109756,0.797363,-0.166016,0.595703
1762435495712843,-43.414635,28.902439,12.865854,0.795410,-0.169922,0.598633
1762435495722757,-38.902439,29.634148,9.573171,0.791992,-0.178223,0.600586
1762435495732672,-28.536587,30.670732,7.195122,0.789551,-0.191406,0.601562
1762435495742588,43.536587,71.524391,-27.987806,0.804688,-0.184082,0.620605
1762435495752502,1.402439,88.536591,-25.243902,0.804688,-0.183105,0.616211
1762435495762417,-19.817074,51.890244,-1.768293,0.810059,-0.197754,0.616699
1762435495772332,-18.719513,38.109756,15.243903,0.822754,-0.210938,0.625488
1762435495792163,1.219512,42.804878,9.085366,0.846191,-0.223633,0.645508
1762435495802077,6.463415,45.975613,-0.975610,0.847656,-0.226562,0.650391
1762435495811992,9.878049,47.682926,-7.865854,0.841309,-0.232422,0.650391
1762435495821907,12.317074,42.743904,-10.304878,0.830078,-0.241211,0.646484
1762435495831822,12.865854,33.902439,-8.719512,0.817383,-0.253418,0.642090
1762435495841738,14.939025,26.829269,-5.731708,0.806152,-0.270020,0.638672
1762435495851652,17.439024,21.829269,1.707317,0.798340,-0.289062,0.636230
1762435495861568,18.353659,17.317074,16.707317,0.791992,-0.311523,0.634766
1762435495871482,21.768293,14.146341,35.121952,0.785156,-0.334961,0.633789
1762435495881398,32.378048,9.939025,48.719513,0.776367,-0.355469,0.631836
1762435495891313,43.414635,4.817073,57.621952,0.765137,-0.370117,0.628906
1762435495901229,51.402439,-2.134146,62.682930,0.750977,-0.380859,0.625488
1762435495911143,57.865856,-9.756098,64.390244,0.736328,-0.389648,0.621582
1762435495921058,64.329269,-18.902439,64.451218,0.721680,-0.398926,0.617676
1762435495930973,71.585365,-30.182928,66.463417,0.708008,-0.410156,0.612793
1762435495940887,79.207321,-43.902439,71.463417,0.695801,-0.424805,0.605957
1762435495950803,88.109756,-58.902439,79.817078,0.685059,-0.440430,0.598633
1762435495960718,99.939026,-72.134148,86.036591,0.676758,-0.453613,0.591309
1762435495970633,110.487808,-81.402443,90.365852,0.672852,-0.462402,0.584961
1762435495980548,118.109756,-84.756096,94.024391,0.671875,-0.466797,0.579590
1762435495990463,128.170731,-87.012199,91.707321,0.673828,-0.468262,0.574707
1762435496000378,139.024399,-87.743904,85.853661,0.678223,-0.468262,0.571289
1762435496010294,151.646347,-85.060974,82.682930,0.683594,-0.467285,0.569336
1762435496020208,160.060974,-78.414635,91.097565,0.690430,-0.462402,0.567871
1762435496030123,166.951218,-71.890244,101.768295,0.699219,-0.453125,0.566406
1762435496040038,171.890244,-66.646339,109.207321,0.709473,-0.437012,0.565430
1762435496049953,169.878052,-62.256100,114.512199,0.721191,-0.415039,0.565430
1762435496059869,161.951218,-55.853661,116.768295,0.734375,-0.388672,0.567871
1762435496069783,148.353668,-45.548782,116.829269,0.748047,-0.359863,0.572754
1762435496079698,130.853668,-32.560978,113.780487,0.760742,-0.332031,0.577637
1762435496089613,114.573174,-18.841463,107.987808,0.768555,-0.310547,0.580078
1762435496099528,107.926834,-10.914635,101.524391,0.770996,-0.296387,0.579590
1762435496109443,109.268295,-6.402439,98.048782,0.767578,-0.289062,0.575684
1762435496119359,117.743904,-0.365854,96.280487,0.759766,-0.281250,0.569336
1762435496129273,124.817078,2.682927,92.317078,0.750000,-0.270996,0.562012
1762435496139188,131.890244,5.853659,85.609756,0.741211,-0.257812,0.556641
1762435496149103,133.780487,17.439024,77.804878,0.736328,-0.241211,0.554688
1762435496159018,138.292679,30.487806,63.902439,0.736328,-0.222168,0.557129
1762435496168934,145.182938,43.048782,47.500000,0.741211,-0.204102,0.562988
1762435496178848,152.439026,53.597561,33.536587,0.749023,-0.188477,0.569824
1762435496188763,156.829269,61.280491,27.195122,0.756348,-0.175781,0.575684
1762435496198679,160.670731,68.536591,29.024391,0.761719,-0.165039,0.579590
1762435496208594,159.817078,79.939026,40.304878,0.765137,-0.152344,0.581543
1762435496228423,136.402435,79.817078,65.914635,0.766602,-0.113770,0.585449
1762435496238338,121.951225,67.865852,70.548782,0.762207,-0.090332,0.586426
1762435496248253,103.963417,56.768295,73.658539,0.755859,-0.067383,0.588379
1762435496258168,86.463417,47.682926,74.817078,0.750000,-0.045410,0.591797
1762435496268084,75.487808,40.365856,70.426834,0.745605,-0.027344,0.597168
1762435496277999,73.414635,36.402439,61.524391,0.742188,-0.013672,0.601074
1762435496287914,78.963417,34.756100,50.670734,0.739258,-0.003418,0.605469
1762435496297829,84.268295,36.219513,44.695122,0.737793,0.007812,0.610352
1762435496307744,83.658539,36.280487,43.353661,0.736328,0.022949,0.618164
1762435496317659,81.768295,30.731709,35.365856,0.734863,0.041016,0.628418
1762435496327574,76.463417,25.426830,24.695122,0.732422,0.060059,0.639160
1762435496337489,68.231712,20.000000,18.780489,0.729980,0.076660,0.649902
1762435496347404,58.658539,12.987805,17.012196,0.728027,0.090332,0.658691
1762435496357319,48.353661,4.634147,18.719513,0.728027,0.102051,0.667969
1762435496367234,35.365856,-2.500000,25.243902,0.728516,0.112793,0.678223
1762435496387064,13.841464,-13.841464,32.682926,0.729004,0.135254,0.702148
1762435496396979,8.719512,-20.000000,27.195122,0.727539,0.146484,0.715332
1762435496406894,9.451220,-22.256098,16.280489,0.723633,0.157227,0.727051
1762435496416809,7.987805,-18.414635,6.707317,0.716309,0.167480,0.735352
1762435496426724,6.158537,-17.378050,-2.987805,0.706055,0.176270,0.736816
1762435496436640,3.841464,-21.036587,-12.134147,0.693848,0.183594,0.734375
1762435496446554,-2.378049,-26.158537,-17.560976,0.682617,0.187500,0.730957
1762435496456469,-8.048780,-28.658537,-18.902439,0.672363,0.187988,0.728516
1762435496466384,-11.158537,-30.853659,-17.804878,0.665039,0.186523,0.728516
1762435496476299,-14.634147,-36.646343,-15.182927,0.662598,0.186523,0.732422
1762435496486215,-24.573172,-35.426830,-10.487805,0.665527,0.187012,0.741211
1762435496496129,-30.000000,-29.085367,-10.975610,0.668945,0.185547,0.749512
1762435496506044,-30.487806,-25.365854,-16.585365,0.669922,0.181641,0.752930
1762435496515959,-28.963415,-25.365854,-21.036587,0.668457,0.175781,0.750977
1762435496525874,-28.414635,-27.439026,-21.829269,0.666504,0.169434,0.743164
1762435496545704,-22.073172,-34.024391,-28.963415,0.665527,0.154785,0.719238
1762435496555619,-20.304878,-42.743904,-32.804878,0.670410,0.147949,0.708496
1762435496565534,-20.365854,-56.402439,-35.731709,0.678711,0.141113,0.699707
1762435496575449,-20.182928,-71.890244,-37.134148,0.689941,0.133301,0.693359
1762435496585364,-22.865854,-83.170731,-34.878048,0.701660,0.125000,0.688965
1762435496595279,-24.939026,-89.878052,-29.573172,0.712891,0.115723,0.683594
1762435496605194,-27.682928,-95.487808,-21.219513,0.722168,0.107422,0.675293
1762435496615110,-33.841465,-100.914635,-10.609756,0.730957,0.101074,0.666992
1762435496625025,-46.768295,-92.621956,0.731707,0.758789,0.091797,0.679199
1762435496634940,-40.121952,-45.426830,4.695122,0.790039,0.078125,0.695801
1762435496644855,-27.439026,-48.170734,4.939024,0.799805,0.069336,0.686035
1762435496654770,-24.451220,-77.926834,1.097561,0.802246,0.073242,0.670898
1762435496664685,-48.353661,-81.219513,12.682927,0.808105,0.067383,0.662598
1762435496674600,-45.121952,-77.560974,17.134148,0.814453,0.055664,0.657715
1762435496684515,-35.853661,-67.682930,20.792683,0.823242,0.042480,0.660156
1762435496704345,-5.487805,39.207317,18.780489,0.867676,0.020020,0.705078
1762435496714260,22.682928,78.292686,-0.365854,0.874512,0.014160,0.711914
1762435496724175,41.402439,83.048782,-14.390244,0.862305,0.012207,0.701172
1762435496734089,43.841465,72.926834,-15.060976,0.833008,0.010742,0.685059
1762435496744005,56.219513,81.097565,-22.073172,0.789062,0.001465,0.669434
1762435496753920,101.036591,121.280487,-48.292683,0.729492,-0.023926,0.639648
1762435496763835,220.060974,116.768295,-103.902443,0.630371,-0.062988,0.552734
1762435496773751,155.609756,-30.060976,-3.048780,0.470215,-0.036621,0.389160
1762435496783665,-16.219513,-226.890244,102.682930,0.474121,0.027832,0.371094
1762435496793580,59.024391,79.268295,-46.219513,0.938477,0.100586,0.809570
1762435496803495,-39.695122,97.012199,19.085367,0.812012,0.106445,0.637207
1762435496813410,-76.097565,25.670732,60.060978,0.827148,0.146973,0.642090
1762435496823325,-120.975616,18.109756,93.719513,0.828125,0.153809,0.629395
1762435496833240,-149.695129,-7.926829,110.609756,0.835449,0.155273,0.622559
1762435496843155,-155.304886,-13.353659,90.121956,0.862305,0.169922,0.639160
1762435496862985,-116.280487,100.914635,-44.634148,0.990234,0.182617,0.770996
1762435496872900,-39.878048,122.500000,-97.256104,0.987793,0.185547,0.763184
1762435496882815,-95.304878,158.048782,-43.841465,1.000977,0.138672,0.779785
1762435496892730,-75.121956,200.365860,-17.195122,0.994141,0.121094,0.781250
1762435496902645,-66.829269,223.475616,-12.987805,0.962402,0.125977,0.764648
1762435496912560,-61.402439,226.036591,-27.621952,0.917969,0.140137,0.738770
1762435496922475,-53.597561,214.451218,-51.768295,0.873047,0.150391,0.715332
1762435496932390,-42.073174,198.841461,-72.195122,0.832520,0.154785,0.698730
1762435496942305,-29.573172,181.646347,-87.134148,0.794922,0.159180,0.687012
1762435496952221,-16.585365,160.487808,-104.085365,0.759277,0.165039,0.677734
1762435496962135,-2.682927,134.390244,-124.207321,0.724121,0.170410,0.668945
1762435496972050,4.085366,102.560982,-138.048782,0.687012,0.172852,0.657227
1762435496981966,3.902439,67.743904,-143.353668,0.648438,0.173828,0.641602
1762435496991881,6.036585,29.207317,-149.329269,0.608398,0.174805,0.618652
1762435497001795,2.804878,-19.024391,-151.829269,0.569336,0.181152,0.593262
1762435497011710,-12.682927,-71.219513,-153.109756,0.541504,0.193848,0.574707
1762435497021626,-31.585367,-112.926834,-162.500000,0.531738,0.206543,0.571289
1762435497031541,-58.353661,-141.585373,-167.804886,0.539062,0.209961,0.583984
1762435497041456,-91.219513,-155.000000,-158.658539,0.560059,0.201660,0.609375
1762435497051370,-113.414635,-149.451218,-142.621948,0.588379,0.184570,0.642090
1762435497061286,-135.182938,-131.158539,-118.170738,0.619629,0.167969,0.677246
1762435497071201,-149.451218,-109.390244,-100.304878,0.649902,0.148438,0.707520
1762435497081116,-148.536591,-88.902443,-94.146347,0.675293,0.127441,0.731934
1762435497091031,-138.536591,-72.987808,-93.719513,0.692383,0.102539,0.748047
1762435497100946,-121.036591,-63.353661,-97.134148,0.700684,0.074219,0.754395
1762435497110861,-100.792686,-57.134148,-100.060982,0.701660,0.043945,0.752930
1762435497120776,-83.170731,-51.524391,-97.256104,0.694824,0.010742,0.745605
1762435497130691,-69.634148,-48.902439,-82.743904,0.683594,-0.019531,0.735352
1762435497140606,-62.378052,-48.536587,-60.304878,0.670410,-0.043457,0.724121
1762435497150521,-59.329269,-50.609756,-41.890244,0.657227,-0.059082,0.715332
1762435497160436,-55.365856,-51.768295,-30.670732,0.645508,-0.067871,0.709961
1762435497180266,-58.109756,-37.560978,-30.853659,0.631348,-0.071289,0.708984
1762435497190181,-48.353661,-26.036587,-51.402439,0.628906,-0.078125,0.708984
1762435497200096,-42.743904,-21.402439,-60.121952,0.628418,-0.092773,0.708008
1762435497210011,-42.195122,-27.195122,-49.817074,0.630371,-0.112793,0.707520
1762435497219926,-44.451221,-36.097561,-26.829269,0.634277,-0.134766,0.708496
1762435497229841,-40.487804,-41.768295,-4.878049,0.638184,-0.155273,0.711914
1762435497239756,-33.292683,-42.134148,14.573171,0.641602,-0.169434,0.717773
1762435497249672,-28.292683,-40.853661,30.060976,0.643066,-0.175781,0.722656
1762435497259586,-20.914635,-37.682926,31.646341,0.642578,-0.174805,0.724609
1762435497269501,-13.902439,-30.853659,22.621952,0.640625,-0.169434,0.724609
1762435497279417,-8.048780,-23.658537,9.756098,0.638184,-0.163086,0.722656
1762435497289332,0.731707,-16.524391,-2.560976,0.635742,-0.158203,0.718262
1762435497299247,4.939024,-16.097561,-10.182927,0.642090,-0.152344,0.719238
1762435497309162,8.658537,-13.109756,-18.414635,0.657227,-0.147949,0.725586
1762435497319077,-6.036585,-1.768293,-11.158537,0.673340,-0.131348,0.733887
1762435497328991,-67.012199,30.975611,13.231708,0.679199,-0.110840,0.734863
1762435497338907,-70.548782,12.073171,-0.060976,0.682129,-0.096680,0.734375
1762435497348822,-67.621956,-13.536586,-14.329268,0.687988,-0.091309,0.739746
1762435497358737,-63.414635,-23.292683,-14.268293,0.699707,-0.099609,0.753906
1762435497368651,-54.634148,1.829268,2.439024,0.720215,-0.124512,0.779785
1762435497378567,-19.390244,8.658537,4.756098,0.720215,-0.130371,0.781250
1762435497388482,-37.804878,6.463415,19.512196,0.708984,-0.131348,0.770996
1762435497398397,-36.768295,11.646341,18.597561,0.698730,-0.130371,0.762695
1762435497408312,-19.878050,14.024390,-1.890244,0.695312,-0.127441,0.763184
1762435497418227,-6.707317,10.975610,-21.646341,0.694824,-0.125977,0.768066
1762435497428142,-2.743902,15.609756,-22.865854,0.695312,-0.136230,0.771973
1762435497438057,6.951220,29.329269,-14.695123,0.692871,-0.145508,0.770996
1762435497447972,11.402439,33.109756,-9.573171,0.692871,-0.144043,0.769043
1762435497457887,-1.097561,25.975611,-5.487805,0.695801,-0.144531,0.771484
1762435497467802,-9.085366,32.500000,4.268293,0.699219,-0.156250,0.776855
1762435497477717,8.231708,53.109756,14.390244,0.699707,-0.175293,0.777344
1762435497497547,28.170732,60.060978,58.963417,0.687500,-0.200195,0.757324
1762435497507462,41.280487,32.682926,85.731712,0.680664,-0.201660,0.747070
1762435497517377,54.024391,34.024391,70.731712,0.681641,-0.164062,0.753418
1762435497527292,31.280489,30.121952,52.317074,0.676270,-0.131836,0.752441
1762435497537207,29.695122,25.792683,20.609756,0.676758,-0.093750,0.759277
1762435497547123,-13.719513,32.012196,10.853659,0.669434,-0.061523,0.756836
1762435497557038,-39.390244,23.231709,-0.853659,0.669434,-0.030273,0.764648
1762435497566952,-82.012199,14.329268,7.012195,0.667969,-0.025879,0.769531
1762435497576868,-83.170731,3.902439,9.329268,0.665039,-0.030273,0.775391
1762435497586783,-77.378052,7.926829,14.939025,0.658691,-0.041992,0.776855
1762435497596698,-64.207321,6.219512,19.268293,0.652832,-0.054688,0.776855
1762435497606613,-52.926830,11.829268,19.695122,0.650879,-0.059082,0.781738
1762435497616528,-58.231709,23.658537,22.560976,0.649414,-0.062500,0.787109
1762435497626443,-59.451221,31.402439,23.170732,0.647949,-0.066406,0.791016
1762435497636358,-60.853661,45.914635,24.817074,0.650879,-0.073730,0.804199
1762435497646274,-46.951221,80.853661,23.231709,0.665527,-0.086426,0.832031
1762435497656188,-19.085367,130.182922,19.024391,0.686523,-0.111328,0.864258
1762435497666103,33.536587,169.878052,9.756098,0.698242,-0.142578,0.880859
1762435497676018,82.987808,174.878052,6.951220,0.693848,-0.171387,0.876465
1762435497685932,118.292686,191.341461,7.500000,0.676270,-0.187988,0.854492
1762435497695848,102.804878,241.768295,16.280489,0.640137,-0.185547,0.811035
1762435497705763,81.951218,258.109772,12.682927,0.580566,-0.179199,0.741211
1762435497715679,113.536591,131.646347,-14.573171,0.489746,-0.161133,0.631348
1762435497725594,97.073174,-111.951225,-28.109756,0.389648,-0.115723,0.493164
1762435497735508,37.317074,-324.634155,-32.378048,0.338379,-0.083984,0.391602
1762435497745423,105.365860,-223.658539,-67.560974,0.516602,-0.122559,0.644531
1762435497755338,198.048782,126.585365,-49.695122,0.661621,-0.129395,0.892090
