Timestamp (us),Gyroscope X (deg/s),Gyroscope Y (deg/s),Gyroscope Z (deg/s),Accelerometer X (g),Accelerometer Y (g),Accelerometer Z (g)
65797412,-14.634147,1.829268,-4.878049,-0.065430,-0.353027,0.926270
1762435482295524,-13.841464,1.341463,-4.390244,-0.067871,-0.353027,0.926758
1762435482305500,-15.000000,0.792683,-4.939024,-0.069336,-0.351562,0.927246
1762435482315477,-18.536587,1.097561,-6.341464,-0.070801,-0.350586,0.927734
1762435482325453,-23.231709,2.743902,-8.231708,-0.072266,-0.350586,0.928223
1762435482335430,-24.329269,3.902439,-8.841464,-0.074219,-0.353027,0.927734
1762435482345407,-20.975611,3.170732,-7.743903,-0.076660,-0.355957,0.927246
1762435482355386,-17.560976,2.195122,-6.280488,-0.078613,-0.359375,0.926758
1762435482365361,-13.841464,0.304878,-4.207317,-0.081055,-0.362305,0.926758
1762435482375337,-10.487805,-1.524390,-2.378049,-0.082520,-0.363770,0.927734
1762435482385314,-9.329268,-4.268293,-0.731707,-0.083984,-0.366699,0.927734
1762435482395291,-4.451220,-7.256098,1.219512,-0.085938,-0.371094,0.927734
1762435482405268,3.719512,-10.609756,5.121951,-0.087402,-0.375000,0.927734
1762435482415245,9.878049,-12.439025,9.695122,-0.088379,-0.376953,0.927734
1762435482425221,13.780488,-12.926829,11.768293,-0.089355,-0.377441,0.926758
1762435482435198,15.914635,-15.426829,11.890244,-0.090332,-0.378418,0.924805
1762435482445175,16.463415,-18.658537,12.621951,-0.090332,-0.381348,0.923828
1762435482455152,19.695122,-22.256098,16.158537,-0.091309,-0.386719,0.922363
1762435482465128,19.512196,-31.829269,24.268293,-0.093262,-0.389648,0.918945
1762435482475105,7.317073,-42.682926,33.231709,-0.093262,-0.389160,0.918457
1762435482485082,-5.182927,-46.341465,39.512196,-0.090332,-0.387695,0.920898
1762435482495059,-15.304878,-40.182926,41.097561,-0.085938,-0.379883,0.925293
1762435482505035,-22.804878,-30.487806,37.073174,-0.081543,-0.374512,0.929688
1762435482515013,-15.243903,-23.780489,28.170732,-0.078613,-0.369141,0.933105
1762435482524989,-5.426829,-16.951220,15.792684,-0.076172,-0.363281,0.935547
1762435482534966,0.792683,-10.426829,4.512195,-0.074219,-0.357422,0.936523
1762435482544943,0.121951,-6.280488,-2.317073,-0.073242,-0.353516,0.936035
1762435482554920,-3.475610,-4.085366,-4.756098,-0.073242,-0.351074,0.935059
1762435482564896,-9.207317,-2.682927,-5.182927,-0.072754,-0.352539,0.934082
1762435482574873,-9.024390,-2.317073,-5.487805,-0.071777,-0.354980,0.933105
1762435482584850,-8.414635,-1.829268,-5.426829,-0.070801,-0.357422,0.932617
1762435482594826,-5.121951,-3.414634,-5.487805,-0.071289,-0.361328,0.929199
1762435482604803,7.865854,-11.158537,-7.926829,-0.073242,-0.362305,0.924805
1762435482614780,11.707317,-17.682928,-15.182927,-0.072754,-0.356934,0.922363
1762435482624757,-1.097561,-19.390244,-19.512196,-0.071289,-0.353516,0.921875
1762435482634734,-7.439024,-18.414635,-16.341463,-0.069336,-0.355957,0.923828
1762435482644710,-6.829268,-17.012196,-14.756098,-0.065918,-0.356445,0.927734
1762435482654687,-7.804878,-11.524390,-12.560976,-0.062988,-0.359863,0.931152
1762435482664666,-5.609756,-10.853659,-13.536586,-0.060059,-0.360352,0.931641
1762435482674641,-9.329268,-9.817074,-12.439025,-0.057129,-0.363770,0.933105
1762435482684617,-6.097561,-5.975610,-7.926829,-0.053711,-0.369629,0.936035
1762435482694594,-3.231707,-2.500000,-4.390244,-0.051758,-0.372070,0.936523
1762435482704572,-3.841464,-1.707317,-3.170732,-0.049805,-0.372559,0.936523
1762435482714548,-3.841464,-0.670732,-2.621951,-0.048340,-0.374023,0.936523
1762435482724524,-1.646342,-0.487805,-2.195122,-0.046875,-0.374023,0.936035
1762435482734501,-1.036585,-1.036585,-1.951220,-0.045898,-0.375000,0.936035
1762435482744478,-0.792683,-1.158537,-1.463415,-0.044922,-0.375488,0.936523
1762435482754455,0.121951,-1.951220,-0.670732,-0.043945,-0.375000,0.936035
1762435482764432,-1.158537,-2.378049,-0.609756,-0.042969,-0.373535,0.936035
1762435482774408,-3.109756,-2.865854,-1.158537,-0.042480,-0.373047,0.935547
1762435482784385,-3.292683,-3.963415,-1.646342,-0.041992,-0.373535,0.935059
1762435482794362,-2.073171,-4.329268,-1.646342,-0.041016,-0.375000,0.934082
1762435482804339,-0.853659,-3.719512,-1.341463,-0.040039,-0.376953,0.934082
1762435482814315,0.426829,-3.170732,-0.853659,-0.038574,-0.377441,0.934082
1762435482824293,-0.609756,-2.195122,-0.792683,-0.037598,-0.377930,0.934082
1762435482834269,-1.951220,-1.829268,-0.609756,-0.036133,-0.376953,0.934570
1762435482844246,-3.292683,-1.585366,-1.097561,-0.035645,-0.377441,0.935059
1762435482854223,-4.268293,-1.402439,-0.426829,-0.035156,-0.376465,0.934570
1762435482864200,-5.365854,-1.280488,-1.097561,-0.034668,-0.376465,0.934082
1762435482874176,-4.695122,-1.280488,-0.975610,-0.034668,-0.376953,0.933594
1762435482884153,-1.585366,-1.585366,-2.012195,-0.033691,-0.377441,0.933594
1762435482894130,1.219512,-1.524390,-3.963415,-0.032715,-0.376953,0.933105
1762435482904106,2.621951,-1.341463,-5.243903,-0.032227,-0.378418,0.932129
1762435482914083,7.073171,-2.926829,-5.670732,-0.032715,-0.379395,0.930664
1762435482924060,6.280488,-6.036585,-5.487805,-0.032715,-0.378906,0.927734
1762435482934037,7.317073,-9.878049,-5.670732,-0.033203,-0.378418,0.925293
1762435482944014,6.097561,-14.146341,-7.195122,-0.033203,-0.375000,0.923828
1762435482953991,0.975610,-14.939025,-9.329268,-0.032227,-0.373535,0.924805
1762435482963967,-0.853659,-13.109756,-10.243902,-0.030273,-0.373047,0.926758
1762435482973946,0.060976,-10.060976,-10.365854,-0.028320,-0.374512,0.929199
1762435482983921,2.317073,-7.743903,-10.365854,-0.025879,-0.375488,0.930664
1762435482993897,2.317073,-6.219512,-9.512196,-0.024414,-0.376465,0.931641
1762435483003874,-0.304878,-5.304878,-7.317073,-0.023438,-0.376465,0.932129
1762435483013852,-3.414634,-4.390244,-5.060976,-0.021973,-0.377441,0.932617
1762435483023828,-5.243903,-3.109756,-4.573171,-0.020508,-0.376465,0.932617
1762435483033804,-6.646342,-3.048780,-6.402439,-0.019043,-0.376465,0.931641
1762435483043781,-6.463415,-5.304878,-9.024390,-0.018555,-0.375488,0.929199
1762435483053758,-10.304878,-8.780488,-12.317074,-0.019043,-0.374023,0.925781
1762435483063735,-11.402439,-12.743903,-13.963415,-0.018555,-0.374512,0.923828
1762435483073711,-9.573171,-13.475610,-12.439025,-0.017090,-0.377441,0.924805
1762435483083689,-5.853659,-10.609756,-9.085366,-0.014648,-0.379883,0.927734
1762435483093665,-3.231707,-7.500000,-6.829268,-0.012695,-0.382324,0.929199
1762435483103642,-1.097561,-6.829268,-6.097561,-0.010742,-0.383789,0.929199
1762435483113619,-0.609756,-6.402439,-5.426829,-0.008789,-0.385742,0.929688
1762435483123595,0.731707,-4.329268,-3.780488,-0.006348,-0.388184,0.931152
1762435483133573,0.731707,-2.560976,-1.707317,-0.004395,-0.389648,0.931152
1762435483143549,1.463415,-1.707317,-0.060976,-0.002930,-0.390625,0.931641
1762435483153526,3.292683,-1.280488,0.243902,-0.001465,-0.391113,0.931641
1762435483163503,4.024390,-1.097561,0.670732,-0.000977,-0.390625,0.932617
1762435483173480,3.902439,-1.219512,1.036585,0.000000,-0.389648,0.932617
1762435483183456,3.841464,-1.463415,1.402439,0.000488,-0.388672,0.933105
1762435483193433,3.658537,-1.707317,1.463415,0.000977,-0.388184,0.933594
1762435483203410,4.817073,-1.951220,1.219512,0.001953,-0.390137,0.933594
1762435483213386,9.817074,-2.682927,1.768293,0.002930,-0.393066,0.934082
1762435483223363,13.780488,-3.658537,2.987805,0.003906,-0.395508,0.933105
1762435483233340,15.792684,-6.402439,4.817073,0.003906,-0.398926,0.931641
1762435483243317,18.719513,-11.402439,7.560976,0.003906,-0.402832,0.931641
1762435483253293,14.756098,-16.768293,13.353659,0.005371,-0.405762,0.931641
1762435483263270,5.792683,-23.902439,20.304878,0.006836,-0.407715,0.931641
1762435483273247,-4.878049,-31.158537,27.500000,0.008789,-0.410156,0.932129
1762435483283226,-14.024390,-36.768295,35.609756,0.011230,-0.409180,0.932617
1762435483293201,-19.878050,-41.158539,41.463417,0.013184,-0.407715,0.932129
1762435483303177,-22.926830,-42.378048,43.719513,0.015137,-0.406250,0.931152
1762435483313154,-16.463415,-41.585365,42.987804,0.016602,-0.405762,0.928711
1762435483323133,-7.256098,-37.987804,39.390244,0.018555,-0.402832,0.927246
1762435483333108,-1.951220,-30.304878,33.475609,0.020508,-0.396973,0.926270
1762435483343084,2.439024,-22.621952,26.829269,0.021484,-0.391113,0.925293
1762435483353061,5.609756,-16.524391,22.073172,0.022461,-0.385254,0.926270
1762435483363038,7.743903,-11.768293,17.682928,0.023926,-0.378906,0.928711
1762435483373015,6.768293,-7.621952,12.012196,0.024902,-0.374023,0.930664
1762435483382991,7.134147,-5.182927,6.890244,0.025879,-0.372070,0.931152
1762435483392968,10.000000,-4.085366,4.878049,0.026855,-0.371582,0.931152
1762435483402946,11.280488,-4.573171,5.243903,0.028320,-0.371094,0.931641
1762435483412922,5.243903,-4.695122,5.609756,0.030762,-0.367676,0.933105
1762435483422898,-3.597561,-4.695122,4.390244,0.032715,-0.366699,0.934082
1762435483432876,-6.768293,-5.731708,4.451220,0.034180,-0.369141,0.933594
1762435483442853,-3.841464,-7.256098,5.975610,0.035156,-0.372559,0.932617
1762435483452829,-0.243902,-7.987805,7.865854,0.036133,-0.374512,0.931152
1762435483462806,2.439024,-7.439024,9.146341,0.036133,-0.375977,0.929199
1762435483472782,4.817073,-7.378049,10.731708,0.037109,-0.377441,0.928711
1762435483482760,6.890244,-6.646342,11.280488,0.038086,-0.378418,0.927734
1762435483492736,8.109756,-5.975610,11.768293,0.039062,-0.378906,0.927734
1762435483502713,7.134147,-5.487805,11.158537,0.040527,-0.378418,0.928223
1762435483512689,4.939024,-5.975610,10.426829,0.042480,-0.377930,0.930176
1762435483522667,1.768293,-7.134147,10.000000,0.043457,-0.377441,0.931641
1762435483532643,-1.036585,-9.146341,10.548780,0.043945,-0.375977,0.932129
1762435483542620,-4.573171,-10.182927,10.975610,0.044922,-0.374512,0.932617
1762435483552597,-6.951220,-10.060976,11.036586,0.044922,-0.374023,0.932129
1762435483562573,-6.036585,-9.390244,10.914635,0.044922,-0.374023,0.931641
1762435483572550,-3.353659,-8.170732,10.670732,0.045410,-0.374512,0.931152
1762435483582527,-0.060976,-6.890244,9.512196,0.045898,-0.375488,0.930664
1762435483592505,3.902439,-6.158537,8.292683,0.046387,-0.377441,0.930176
1762435483602481,7.256098,-6.280488,7.743903,0.046875,-0.380371,0.929688
1762435483612457,12.439025,-7.256098,7.926829,0.047363,-0.383301,0.929199
1762435483622434,16.646341,-7.865854,9.939025,0.048340,-0.381836,0.928711
1762435483632412,6.524390,-10.975610,10.914635,0.050293,-0.383301,0.931152
1762435483642387,6.707317,-15.609756,16.951220,0.050293,-0.384766,0.931152
1762435483652364,8.414635,-19.390244,20.975611,0.050781,-0.383789,0.930664
1762435483662341,10.060976,-20.243902,23.414635,0.051270,-0.384277,0.930664
1762435483672318,24.085367,-21.219513,26.768293,0.050293,-0.386719,0.929199
1762435483682295,44.329269,-23.231709,30.975611,0.050293,-0.389160,0.928223
1762435483692271,55.792683,-23.902439,34.329269,0.051270,-0.385742,0.927734
1762435483702248,54.695122,-20.853659,32.804878,0.053711,-0.377930,0.928711
1762435483712225,46.585365,-16.524391,27.439026,0.056152,-0.373047,0.930176
1762435483722202,52.439026,-16.280489,29.573172,0.055664,-0.383301,0.931152
1762435483732178,68.597565,-23.170732,54.878052,0.054688,-0.389160,0.927246
1762435483742156,33.597561,-47.926830,103.414635,0.045898,-0.416016,0.914062
1762435483752133,61.463417,-86.402443,127.134148,0.045410,-0.410645,0.907227
1762435483762109,79.207321,-87.865852,95.365852,0.056152,-0.375977,0.913086
1762435483772086,60.609756,-54.085365,50.182926,0.066895,-0.354004,0.925781
1762435483782062,58.719513,-25.060976,38.414635,0.073242,-0.350586,0.936523
1762435483792040,59.390244,-25.975611,56.402439,0.072754,-0.355469,0.937500
1762435483802016,57.682930,-43.536587,72.012199,0.073730,-0.345703,0.935059
1762435483811993,48.963417,-46.341465,60.792683,0.079102,-0.325684,0.937012
1762435483821969,42.743904,-34.939026,42.865856,0.084473,-0.310547,0.940918
1762435483831946,38.414635,-28.597561,35.975609,0.087891,-0.298828,0.942383
1762435483841923,30.243904,-30.487806,32.195122,0.091797,-0.285645,0.943848
1762435483851900,25.121952,-27.560976,22.560976,0.098633,-0.270996,0.950684
1762435483861876,16.585365,-14.756098,11.463415,0.104980,-0.261230,0.957031
1762435483871854,9.329268,-9.085366,9.573171,0.106934,-0.258789,0.957520
1762435483881830,8.292683,-8.658537,8.048780,0.108887,-0.256348,0.958008
1762435483891807,8.841464,-7.134147,5.609756,0.110352,-0.256348,0.958984
1762435483901786,12.256098,-6.585366,5.853659,0.112305,-0.255859,0.959473
1762435483911760,13.963415,-6.768293,5.853659,0.113770,-0.253906,0.960449
1762435483921737,12.317074,-6.829268,5.548780,0.116211,-0.248535,0.961426
1762435483931714,7.987805,-5.548780,5.060976,0.117676,-0.243164,0.961426
1762435483941692,5.304878,-6.463415,5.914634,0.119629,-0.237305,0.962402
1762435483951667,0.182927,-4.756098,3.841464,0.122070,-0.230957,0.963379
1762435483961644,-2.743902,-3.597561,1.707317,0.123535,-0.228516,0.963379
1762435483971621,-1.646342,-4.695122,1.890244,0.124023,-0.228027,0.963379
1762435483981598,0.121951,-4.512195,2.378049,0.125488,-0.229004,0.963379
1762435483991575,3.902439,-3.841464,3.048780,0.125977,-0.230469,0.963867
1762435484001551,6.402439,-3.109756,2.073171,0.126465,-0.229980,0.963867
1762435484011528,6.768293,-1.890244,0.609756,0.126953,-0.227539,0.963867
1762435484021505,3.719512,-0.243902,-0.426829,0.128418,-0.223145,0.964844
1762435484031482,-0.609756,1.097561,-1.829268,0.129395,-0.219238,0.965332
1762435484041459,-3.475610,1.341463,-2.012195,0.130859,-0.215820,0.966309
1762435484051435,-7.621952,2.743902,-2.560976,0.132324,-0.212402,0.966797
1762435484061413,-8.963415,3.231707,-2.621951,0.132812,-0.212402,0.966797
1762435484071389,-6.768293,2.743902,-2.073171,0.133301,-0.214844,0.966309
1762435484081366,-1.402439,1.463415,-0.365854,0.133301,-0.217285,0.965820
1762435484091342,3.963415,0.000000,1.341463,0.133301,-0.219727,0.964844
1762435484101320,11.768293,-3.841464,4.329268,0.133301,-0.222656,0.964844
1762435484111296,15.060976,-5.182927,5.914634,0.133301,-0.221680,0.964355
1762435484121273,17.743902,-7.439024,7.621952,0.133789,-0.221680,0.966309
1762435484131250,17.743902,-7.682927,9.146341,0.134277,-0.218262,0.967773
1762435484141226,12.804878,-5.426829,7.439024,0.134766,-0.213867,0.968262
1762435484151204,8.658537,-3.292683,4.817073,0.135254,-0.210938,0.968750
1762435484161180,5.243903,-1.524390,2.012195,0.136719,-0.208008,0.969238
1762435484171157,2.621951,1.341463,-0.304878,0.137207,-0.207520,0.970215
1762435484181133,3.048780,1.707317,-0.975610,0.138184,-0.206543,0.970215
1762435484191110,0.487805,2.804878,-2.987805,0.139160,-0.203613,0.970703
1762435484201087,-1.951220,3.719512,-3.963415,0.139648,-0.202148,0.970215
1762435484211066,-1.829268,3.109756,-3.109756,0.139648,-0.201172,0.970215
1762435484221041,-0.914634,2.560976,-2.804878,0.139160,-0.202148,0.970703
1762435484231017,6.829268,-6.097561,-0.243902,0.135254,-0.203613,0.967285
1762435484240994,14.024390,-3.658537,3.353659,0.139160,-0.207520,0.976562
1762435484250972,15.731708,-5.975610,5.243903,0.137695,-0.207520,0.973633
1762435484260948,16.768293,-6.341464,3.963415,0.138184,-0.206543,0.974121
1762435484270924,16.585365,-4.634147,2.134146,0.138184,-0.204590,0.973145
1762435484280901,14.756098,-1.402439,0.487805,0.139648,-0.200195,0.972656
1762435484290878,9.085366,2.073171,-1.524390,0.141602,-0.193848,0.972168
1762435484300855,-1.646342,6.158537,-4.390244,0.144531,-0.185059,0.972656
1762435484310831,-14.451220,12.560976,-7.865854,0.146973,-0.180176,0.973633
1762435484320808,-17.804878,17.378050,-8.048780,0.147461,-0.179199,0.974121
1762435484330785,-20.670732,19.939024,-9.268293,0.146973,-0.177246,0.971680
1762435484340762,-23.658537,27.560976,-10.182927,0.149902,-0.181641,0.978027
1762435484350739,-27.012196,29.573172,-13.109756,0.144043,-0.176758,0.969727
1762435484360715,-30.060976,27.804878,-17.439024,0.142578,-0.178223,0.972168
1762435484370693,-27.621952,30.243904,-18.353659,0.141113,-0.180664,0.972656
1762435484380669,-26.707317,29.085367,-18.536587,0.139648,-0.181152,0.972656
1762435484390646,-28.536587,27.195122,-20.365854,0.138184,-0.181152,0.975098
1762435484400622,-31.280489,26.341465,-22.195122,0.135254,-0.182129,0.975098
1762435484410600,-27.012196,21.219513,-19.451220,0.131836,-0.187988,0.974609
1762435484420576,-19.268293,13.841464,-13.597561,0.128906,-0.192871,0.973633
1762435484430553,-13.536586,10.792684,-9.878049,0.126465,-0.197266,0.974121
1762435484440529,-9.817074,10.000000,-7.682927,0.124512,-0.200684,0.974121
1762435484450506,-7.439024,9.268293,-6.829268,0.123047,-0.203125,0.975098
1762435484460483,12.682927,14.634147,-6.768293,0.125000,-0.196777,0.981934
1762435484470460,-16.341463,23.597561,-17.682928,0.122070,-0.196777,0.981934
1762435484480437,-20.000000,16.707317,-16.585365,0.118652,-0.195801,0.979004
1762435484490413,-25.853659,11.158537,-18.109756,0.114746,-0.195801,0.976562
1762435484500390,-28.292683,10.914635,-22.378050,0.112305,-0.197266,0.975098
1762435484510367,-28.597561,10.609756,-24.024391,0.109375,-0.202637,0.975098
1762435484520345,-20.304878,9.512196,-22.378050,0.108887,-0.208984,0.977051
1762435484530321,-14.817074,10.487805,-20.121952,0.108887,-0.215820,0.980957
1762435484540297,-12.500000,16.219513,-13.963415,0.108398,-0.226074,0.984863
1762435484550274,-4.024390,20.365854,-3.963415,0.106445,-0.237305,0.985840
1762435484560252,3.231707,20.548780,6.707317,0.103027,-0.245117,0.984375
1762435484570228,4.939024,16.097561,10.609756,0.100098,-0.250977,0.983398
1762435484580205,7.012195,10.609756,9.024390,0.099121,-0.255859,0.984863
1762435484590181,2.987805,7.317073,7.926829,0.099609,-0.260742,0.990234
1762435484600158,-1.280488,5.914634,8.719512,0.101074,-0.265137,0.996582
1762435484610135,-4.634147,6.951220,7.865854,0.102539,-0.270020,1.001953
1762435484620111,-6.707317,10.609756,6.158537,0.102539,-0.277344,1.003906
1762435484630088,-4.939024,14.207317,7.073171,0.101074,-0.287598,1.001953
1762435484640065,-1.036585,15.853659,10.426829,0.097656,-0.299805,0.998047
1762435484650042,3.292683,17.073172,15.304878,0.093750,-0.312988,0.992676
1762435484660019,5.731708,18.597561,21.646341,0.089355,-0.328613,0.988281
1762435484669996,9.146341,18.048780,30.121952,0.083984,-0.346191,0.984863
1762435484679973,12.134147,15.853659,40.060978,0.078613,-0.364746,0.981445
1762435484689949,13.780488,11.646341,51.524391,0.073730,-0.381836,0.978516
1762435484699926,12.073171,6.463415,62.743904,0.068848,-0.396973,0.974609
1762435484709905,11.585366,1.951220,71.524391,0.064941,-0.411133,0.969727
1762435484719880,12.439025,-1.890244,75.731712,0.061523,-0.424316,0.964355
1762435484729856,15.426829,-4.268293,78.414635,0.058594,-0.439453,0.960449
1762435484739833,18.841463,-5.304878,85.243904,0.055664,-0.455078,0.957520
1762435484749810,23.048780,-6.646342,98.902443,0.053711,-0.468750,0.957031
1762435484759786,28.780489,-7.804878,113.414635,0.053711,-0.476562,0.959473
1762435484769763,29.939026,-7.621952,125.000000,0.055176,-0.477539,0.963379
1762435484779740,29.756098,-5.243903,133.841461,0.056152,-0.474609,0.967285
1762435484789717,30.365854,-0.670732,140.487808,0.056152,-0.466797,0.968262
1762435484799693,29.451220,4.756098,143.658539,0.054688,-0.456055,0.965820
1762435484809670,28.597561,7.439024,143.048782,0.050293,-0.442871,0.959473
1762435484819647,27.073172,7.134147,142.560974,0.043945,-0.428711,0.951172
1762435484829626,24.756098,3.475610,144.451218,0.037109,-0.413574,0.941895
1762435484839600,25.487806,-3.048780,147.500000,0.030762,-0.397461,0.933594
1762435484849577,24.390244,-11.463415,149.085373,0.027832,-0.379395,0.928223
1762435484859554,18.292683,-18.902439,149.756104,0.027344,-0.361328,0.925293
1762435484869532,14.024390,-24.268293,147.926834,0.029785,-0.344727,0.925293
1762435484879508,11.402439,-24.756098,144.878052,0.033691,-0.329590,0.925293
1762435484889484,9.390244,-20.853659,141.768295,0.037598,-0.317383,0.925293
1762435484899461,10.365854,-17.500000,140.609756,0.040039,-0.309570,0.924316
1762435484909438,15.243903,-15.975610,145.731705,0.041504,-0.302246,0.922852
1762435484919415,22.682928,-17.378050,155.548782,0.041992,-0.293457,0.918945
1762435484929391,27.865854,-21.402439,163.780487,0.042480,-0.279297,0.914551
1762435484939368,26.402439,-23.719513,167.865860,0.043945,-0.260254,0.910645
1762435484949345,18.658537,-23.719513,167.926834,0.046387,-0.239746,0.907227
1762435484959322,9.207317,-24.085367,163.109756,0.048828,-0.220215,0.904297
1762435484969299,5.670732,-24.146341,154.512192,0.051270,-0.206055,0.903320
1762435484979275,13.963415,-23.170732,144.573181,0.053223,-0.193848,0.901855
1762435484989253,25.000000,-25.060976,133.719513,0.053711,-0.182617,0.899414
1762435484999229,34.695122,-29.756098,125.182930,0.053223,-0.172363,0.895020
1762435485009206,45.975613,-36.158539,119.817078,0.052246,-0.162598,0.888672
1762435485019183,56.402439,-40.853661,115.426834,0.052734,-0.152344,0.884277
1762435485029160,69.268295,-40.060978,111.768295,0.054199,-0.140137,0.878906
1762435485039136,77.439026,-35.182926,109.329269,0.057617,-0.123535,0.876953
1762435485049113,80.731712,-26.829269,107.134148,0.062500,-0.104004,0.877441
1762435485059089,80.548782,-19.512196,106.829269,0.065918,-0.081055,0.875977
1762435485069066,73.536591,-15.731708,103.719513,0.070312,-0.055176,0.875488
1762435485079043,62.012196,-11.097561,96.158539,0.075684,-0.030762,0.876465
1762435485089020,53.780491,-8.902439,86.219513,0.082031,-0.012207,0.880859
1762435485098996,48.536587,-11.585366,78.353661,0.088867,0.000488,0.885742
1762435485108973,42.439026,-13.719513,76.402443,0.096680,0.011230,0.893066
1762435485118950,33.597561,-11.707317,75.792686,0.104980,0.023438,0.902344
1762435485128927,24.817074,-8.292683,72.926834,0.111328,0.036133,0.910645
1762435485138906,20.731709,-1.341463,67.256096,0.115723,0.045898,0.918457
1762435485148881,23.902439,9.390244,61.890244,0.118164,0.052734,0.923828
1762435485158857,28.536587,19.268293,59.573174,0.118164,0.053223,0.928223
1762435485168834,38.475609,25.609756,60.243904,0.117676,0.051758,0.933594
1762435485178811,39.634148,25.243902,61.463417,0.118652,0.049316,0.943359
1762435485188788,35.670734,20.731709,64.573174,0.120117,0.045410,0.956055
1762435485198764,28.109756,14.573171,69.451218,0.121582,0.040527,0.970703
1762435485208741,19.756098,10.426829,76.158539,0.122559,0.036133,0.987305
1762435485218718,10.975610,9.695122,81.524391,0.123535,0.035156,1.006836
1762435485228695,-0.304878,11.829268,83.902443,0.124512,0.036621,1.025391
1762435485238672,-11.585366,18.841463,85.914635,0.124512,0.037109,1.041504
1762435485248648,-16.768293,34.817074,90.182930,0.123047,0.033691,1.052734
1762435485258625,-12.987805,56.890244,96.280487,0.119629,0.028809,1.059082
1762435485268602,-8.597561,77.804878,101.951225,0.113281,0.025879,1.058594
1762435485278579,-8.963415,82.378052,106.158539,0.103516,0.026855,1.051270
1762435485288555,-10.182927,73.597565,108.658539,0.092285,0.029785,1.040527
1762435485298534,-12.073171,62.865856,107.500000,0.081543,0.035156,1.029297
1762435485308509,-12.682927,52.926830,105.060982,0.069824,0.038574,1.015137
1762435485318486,-11.524390,43.170734,107.621956,0.057129,0.042480,0.997559
1762435485328462,-17.682928,35.060978,109.451225,0.044922,0.048340,0.983398
1762435485338440,-22.012196,26.280489,106.036591,0.034180,0.059082,0.975586
1762435485348416,-29.329269,17.682928,94.634148,0.024902,0.075195,0.971191
1762435485358393,-42.012196,9.329268,76.097565,0.017578,0.092773,0.971191
1762435485368369,-51.463417,0.548781,57.439026,0.009766,0.106934,0.974121
1762435485378346,-56.036587,-8.170732,42.378048,0.001953,0.116699,0.976562
1762435485388323,-55.853661,-17.804878,31.097561,-0.004883,0.123535,0.978027
1762435485398300,-54.085365,-28.170732,20.975611,-0.010742,0.128418,0.977051
1762435485408277,-49.390244,-38.597561,11.036586,-0.014160,0.130859,0.977051
1762435485418254,-44.817074,-46.402439,0.792683,-0.016113,0.131836,0.978516
1762435485428231,-42.682926,-53.231709,-7.378049,-0.016113,0.129395,0.979492
1762435485438207,-44.085365,-60.426830,-11.524390,-0.015137,0.122070,0.979004
1762435485448186,-48.353661,-67.804878,-8.902439,-0.014648,0.109863,0.974609
1762435485458161,-53.353661,-79.695122,-1.707317,-0.015137,0.097168,0.967773
1762435485468137,-62.012196,-96.646347,5.060976,-0.016113,0.085449,0.958984
1762435485478114,-73.170731,-118.292686,8.353659,-0.016602,0.077148,0.950684
1762435485488091,-86.646347,-142.439026,6.951220,-0.014648,0.071289,0.942383
1762435485498068,-96.707321,-166.097565,0.792683,-0.010742,0.063965,0.934082
1762435485508044,-100.548782,-189.939026,-7.743903,-0.003906,0.055664,0.927246
1762435485518021,-100.487808,-212.073181,-16.646341,0.006836,0.045410,0.923340
1762435485527998,-96.219513,-235.487808,-26.402439,0.021484,0.036133,0.922363
1762435485537975,-93.292686,-250.060974,-36.463417,0.058594,0.006836,0.945312
1762435485547952,-12.926829,53.780491,3.963415,0.129883,-0.050293,1.139160
1762435485557928,-15.731708,71.524391,8.597561,0.130859,-0.047852,1.079590
1762435485567905,-17.621952,-6.585366,-9.451220,0.126465,-0.060547,1.038086
1762435485577882,4.268293,-13.597561,-11.646341,0.141113,-0.083008,1.049316
1762435485587859,24.207317,6.707317,-11.402439,0.154785,-0.092285,1.052246
1762435485597836,26.951220,16.341463,-15.121952,0.163574,-0.099121,1.046387
1762435485607813,56.036587,36.646343,-11.280488,0.173828,-0.120605,1.046387
1762435485617789,119.329269,132.073181,7.743903,0.204590,-0.147461,1.099121
1762435485627766,151.890244,294.939026,37.439026,0.241699,-0.180664,1.179688
1762435485637743,169.512192,386.280487,69.207321,0.260254,-0.196289,1.212402
1762435485647720,161.524399,386.097565,79.085365,0.257812,-0.187988,1.195801
1762435485657696,136.890244,317.621948,62.987808,0.234863,-0.162598,1.138184
1762435485667673,104.268295,220.487808,38.231709,0.200684,-0.133789,1.068359
1762435485677650,82.865852,126.707321,20.365854,0.166504,-0.113281,1.006836
1762435485687626,76.646347,55.365856,14.756098,0.135742,-0.096680,0.959961
1762435485697603,69.207321,12.987805,13.597561,0.110840,-0.077148,0.929688
1762435485707580,51.463417,-22.256098,4.817073,0.086426,-0.041992,0.903320
1762435485717557,-11.280488,-105.304878,-29.329269,0.049805,0.008789,0.849609
1762435485727534,-88.048782,-262.500000,-76.158539,0.012695,0.054688,0.762695
1762435485737511,-181.951218,-572.439026,-109.634148,-0.012695,0.083008,0.652344
1762435485747487,-255.731720,-744.634155,-126.280487,-0.004395,0.089844,0.559570
1762435485757467,-268.658539,-763.109802,-130.060974,0.046387,0.067383,0.531250
1762435485767441,-204.573181,-506.402466,-34.817074,0.329590,-0.100586,0.922363
1762435485777418,-17.621952,134.207321,39.878048,0.317871,-0.072754,1.023438
1762435485787394,-86.951225,49.817074,9.573171,0.280762,-0.064941,0.906738
1762435485797371,-41.768295,7.500000,6.951220,0.295410,-0.109375,0.945312
1762435485807348,77.317078,58.292683,-0.426829,0.312988,-0.120605,0.975586
1762435485817325,97.378052,121.402443,-17.500000,0.336914,-0.129395,1.027832
1762435485827302,117.073174,234.451218,-7.195122,0.366699,-0.151367,1.093262
1762435485837278,155.060974,302.804871,11.036586,0.383789,-0.152344,1.121094
1762435485847255,170.304886,315.853668,10.304878,0.384766,-0.124023,1.109863
1762435485857232,154.756104,288.597565,-15.243903,0.375488,-0.080078,1.078613
1762435485867209,124.329269,242.804886,-49.390244,0.360352,-0.032227,1.041992
1762435485877186,91.036591,193.475616,-79.695122,0.344238,0.009766,1.010742
1762435485887162,67.500000,151.829269,-104.329269,0.328125,0.042480,0.987305
1762435485897139,54.512196,125.853661,-120.182930,0.312500,0.065918,0.973633
1762435485907116,54.024391,112.256104,-130.914642,0.297363,0.084473,0.966309
1762435485917094,58.170734,98.231712,-141.219513,0.277344,0.099609,0.953613
1762435485927070,64.390244,73.292686,-151.341461,0.254395,0.115234,0.942383
1762435485937046,60.426830,44.451221,-164.329269,0.231934,0.132324,0.934570
1762435485947023,54.329269,17.073172,-181.219513,0.209473,0.149414,0.929688
1762435485957000,40.670734,-2.865854,-199.756104,0.188965,0.162109,0.928223
1762435485966976,24.146341,-16.951220,-213.597565,0.168945,0.166504,0.927246
1762435485976953,9.329268,-30.609756,-216.951218,0.150879,0.161133,0.926758
1762435485986930,5.121951,-44.573174,-208.780487,0.134277,0.153809,0.924805
1762435485996907,10.365854,-54.756100,-202.439026,0.124023,0.147949,0.926270
1762435486006884,15.243903,-54.695122,-201.280487,0.120605,0.147949,0.937500
1762435486016860,15.731708,-34.146343,-206.097565,0.124512,0.149902,0.958008
1762435486026837,13.475610,-8.353659,-216.280487,0.130859,0.150879,0.980469
1762435486036814,4.207317,6.097561,-225.487808,0.135254,0.150391,0.996094
1762435486046791,-12.500000,4.573171,-230.182938,0.136230,0.146484,1.003418
1762435486056768,-31.951220,-3.292683,-229.756104,0.136230,0.138184,1.005859
1762435486066748,-45.426830,-8.658537,-224.512207,0.136230,0.123535,1.004883
1762435486076721,-40.487804,-9.451220,-220.000000,0.133301,0.103027,0.998535
1762435486086698,-23.597561,-5.304878,-213.719513,0.128906,0.080078,0.988281
1762435486096675,-4.695122,3.536585,-196.341461,0.121582,0.058105,0.978027
1762435486106652,13.536586,13.658537,-173.048782,0.112793,0.042969,0.966797
1762435486116628,27.195122,19.390244,-159.451218,0.100098,0.035645,0.954590
1762435486126605,36.280487,17.865854,-159.085373,0.085449,0.034180,0.939941
1762435486136582,40.365856,11.951220,-165.975616,0.070312,0.035645,0.925781
1762435486146559,35.609756,4.207317,-171.707321,0.055664,0.034668,0.910645
1762435486156535,23.170732,-7.560976,-171.585373,0.041016,0.027832,0.898926
1762435486166513,7.073171,-23.719513,-161.707321,0.028809,0.019043,0.891602
1762435486176490,-13.048780,-37.560978,-149.207321,0.018555,0.014160,0.889160
1762435486186466,-31.707317,-49.207317,-143.597565,0.010742,0.015137,0.888184
1762435486196442,-48.963417,-51.280491,-149.390244,0.006836,0.013184,0.891602
1762435486206420,-58.475613,-45.060978,-159.268295,0.004883,0.003418,0.898926
1762435486216396,-58.902439,-39.939026,-160.670731,0.003906,-0.015137,0.906250
1762435486226374,-55.670734,-37.621952,-153.719513,0.003418,-0.037109,0.914551
1762435486236350,-52.987804,-34.939026,-144.451218,0.002441,-0.059570,0.920898
1762435486246326,-50.243904,-31.890245,-136.463425,0.001465,-0.083496,0.925293
1762435486256304,-44.878052,-35.060978,-126.463417,0.000000,-0.105469,0.929199
1762435486266281,-45.121952,-45.731709,-111.646347,-0.000977,-0.124023,0.936035
1762435486276257,-50.792683,-53.109756,-92.439026,-0.000488,-0.138184,0.946777
1762435486286234,-54.939026,-51.707317,-75.365852,0.000488,-0.147461,0.959961
1762435486296210,-58.414635,-46.951221,-64.878052,0.001465,-0.153809,0.971191
1762435486306187,-60.792683,-42.073174,-62.134148,0.001953,-0.158203,0.979004
1762435486316164,-62.439026,-36.707317,-66.524391,0.001465,-0.165039,0.980469
1762435486326141,-58.597561,-34.573170,-69.634148,-0.001953,-0.176270,0.975586
1762435486336117,-49.878052,-32.804878,-66.463417,-0.005371,-0.191895,0.969238
1762435486346094,-38.170734,-32.926830,-57.073174,-0.009766,-0.208984,0.961914
1762435486356071,-27.317074,-38.658539,-41.890244,-0.014648,-0.222168,0.955078
1762435486366048,-17.317074,-41.829269,-27.317074,-0.017578,-0.230469,0.950195
1762435486376027,-5.853659,-37.987804,-19.024391,-0.018555,-0.231445,0.947266
1762435486386002,1.219512,-31.219513,-19.817074,-0.017090,-0.226562,0.944824
1762435486395978,-1.097561,-23.231709,-29.085367,-0.012695,-0.218750,0.945801
1762435486405955,-7.195122,-17.621952,-40.609756,-0.006348,-0.216797,0.949219
1762435486415932,-13.048780,-14.634147,-44.756100,-0.000977,-0.221680,0.953613
1762435486425908,-15.731708,-15.731708,-40.121952,0.004395,-0.227051,0.958496
1762435486435885,-18.658537,-18.414635,-32.256100,0.010254,-0.230469,0.964355
1762435486445862,-19.634148,-20.304878,-29.634148,0.016602,-0.231934,0.969727
1762435486455839,-21.219513,-20.670732,-32.804878,0.022461,-0.231934,0.974121
1762435486465815,-22.012196,-19.878050,-36.951221,0.026855,-0.233887,0.974609
1762435486475792,-20.365854,-17.743902,-37.926830,0.028320,-0.238770,0.970703
1762435486485769,-24.451220,-19.634148,-33.902439,0.029785,-0.238281,0.965332
1762435486495746,-39.268295,-25.304878,-32.134148,0.033203,-0.237305,0.963867
1762435486505723,-35.670734,-29.939026,-35.609756,0.036621,-0.239746,0.964355
1762435486515699,-27.682928,-27.682928,-40.670734,0.041504,-0.241699,0.965820
1762435486525676,-19.878050,-20.000000,-43.109756,0.046387,-0.245605,0.967773
1762435486535655,-14.817074,-14.024390,-43.414635,0.050293,-0.250000,0.968262
1762435486545630,-15.853659,-11.280488,-42.073174,0.053711,-0.254395,0.965820
1762435486555607,-15.365854,-11.402439,-38.353661,0.056152,-0.258301,0.961426
1762435486565583,-15.670732,-14.207317,-36.890244,0.058594,-0.260742,0.954590
1762435486575561,-18.048780,-18.353659,-37.560978,0.061035,-0.263672,0.945801
1762435486585537,-21.768293,-24.512196,-37.256100,0.064453,-0.269043,0.939453
1762435486595514,-27.987806,-33.475609,-33.597561,0.071289,-0.273438,0.940430
1762435486605490,-41.829269,-31.707317,-20.731709,0.080078,-0.280762,0.946289
1762435486615467,-38.658539,-16.768293,-6.036585,0.088867,-0.285156,0.952637
1762435486625444,-41.585365,-3.170732,0.914634,0.096680,-0.286621,0.955566
1762435486635422,-47.804878,2.378049,0.731707,0.102539,-0.287109,0.954590
1762435486645398,-48.170734,2.012195,-3.048780,0.105469,-0.293945,0.949707
1762435486655374,-13.231708,-7.743903,-11.585366,0.110352,-0.301758,0.950195
1762435486665351,2.926829,-14.329268,-21.158537,0.118652,-0.293457,0.959961
1762435486675328,-12.317074,-9.390244,-23.353659,0.126465,-0.292480,0.974609
1762435486685307,-8.475610,1.707317,-21.768293,0.133789,-0.290039,0.989258
1762435486695282,-16.280489,19.329269,-18.414635,0.136230,-0.287598,0.998047
1762435486705258,-16.097561,32.865856,-12.804878,0.133301,-0.284668,0.996582
1762435486715235,-17.926830,34.573170,-12.865854,0.128418,-0.275879,0.989258
1762435486725212,-31.768293,33.475609,-19.512196,0.125977,-0.266602,0.981934
1762435486735189,-37.621952,32.743904,-30.853659,0.126465,-0.266113,0.979004
1762435486745165,-33.170731,29.268293,-40.548782,0.129395,-0.270020,0.979004
1762435486755142,-28.963415,28.841465,-44.146343,0.131836,-0.278320,0.981445
1762435486765119,-18.048780,33.597561,-39.573174,0.131348,-0.285645,0.980957
1762435486775096,-15.243903,34.939026,-34.207317,0.129883,-0.291504,0.977539
1762435486785073,-15.609756,30.548780,-28.353659,0.126465,-0.296387,0.971191
1762435486795049,-17.439024,25.670732,-23.719513,0.123047,-0.298828,0.963867
1762435486805026,-22.256098,24.451220,-19.695122,0.120117,-0.301270,0.958496
1762435486815003,-17.073172,23.719513,-16.585365,0.117676,-0.305176,0.956543
1762435486824980,-8.170732,20.914635,-17.439024,0.116211,-0.305176,0.956543
1762435486834957,-10.060976,18.780489,-20.060976,0.116211,-0.302246,0.958496
1762435486844935,-15.304878,18.109756,-23.963415,0.116211,-0.300781,0.962402
1762435486854910,-17.621952,20.853659,-29.146341,0.117188,-0.297852,0.966309
1762435486864887,-22.743902,26.707317,-36.341465,0.116699,-0.295898,0.967285
1762435486874864,-22.743902,32.560978,-42.987804,0.114746,-0.293457,0.966309
1762435486884842,-30.121952,45.426830,-45.548782,0.113770,-0.290039,0.966309
1762435486894817,-53.048782,79.939026,-28.597561,0.111328,-0.319336,0.972656
1762435486904795,-8.475610,73.658539,-6.341464,0.104980,-0.325195,0.965820
1762435486914771,6.158537,70.792686,-6.402439,0.096680,-0.319824,0.957031
1762435486924748,-3.536585,66.036591,-22.804878,0.089355,-0.319336,0.948242
1762435486934725,-4.634147,55.365856,-33.902439,0.081543,-0.324219,0.938477
1762435486944701,12.743903,43.109756,-34.756100,0.075684,-0.333008,0.936523
1762435486954678,29.634148,38.231709,-38.048782,0.071289,-0.332520,0.937012
1762435486964655,26.158537,35.975609,-44.512196,0.067383,-0.329102,0.937500
1762435486974632,17.317074,35.609756,-47.378052,0.064453,-0.327637,0.939453
1762435486984608,9.207317,35.731709,-48.048782,0.060547,-0.327148,0.939941
1762435486994585,-1.768293,38.292683,-44.573174,0.057617,-0.332031,0.940918
1762435487004563,1.158537,39.573174,-36.829269,0.053223,-0.340332,0.943359
1762435487014539,9.390244,41.707317,-29.756098,0.049805,-0.346680,0.945312
1762435487024515,15.975610,42.378048,-27.439026,0.046387,-0.353027,0.946777
1762435487034492,18.109756,44.390244,-21.707317,0.042480,-0.356934,0.947266
1762435487044470,18.048780,48.475613,-11.097561,0.036621,-0.364258,0.945312
1762435487054446,23.353659,46.341465,-0.975610,0.030273,-0.367188,0.942383
1762435487064423,23.536587,43.231709,7.378049,0.023926,-0.365723,0.939453
1762435487074400,19.939024,38.292683,10.243902,0.018555,-0.359863,0.937500
1762435487084377,13.353659,32.804878,5.060976,0.014648,-0.353516,0.939941
1762435487094353,7.804878,29.817074,-0.182927,0.012207,-0.348145,0.947266
1762435487104330,3.719512,32.987804,-0.975610,0.009766,-0.345215,0.955078
1762435487114307,1.768293,40.243904,0.487805,0.007324,-0.342285,0.959961
1762435487124283,-8.292683,52.865856,-0.670732,0.004883,-0.333496,0.961914
1762435487134260,-14.390244,64.024391,-7.743903,-0.001465,-0.332520,0.960938
1762435487144238,-2.256098,61.890244,-15.731708,-0.009766,-0.327148,0.958984
1762435487154216,-8.597561,52.500000,-25.853659,-0.019043,-0.323242,0.955078
1762435487164191,-14.146341,37.987804,-31.097561,-0.030273,-0.325684,0.950684
1762435487174167,-20.609756,27.439026,-25.426830,-0.039062,-0.329590,0.947266
1762435487184144,-26.463415,23.841463,-13.597561,-0.048340,-0.338379,0.943848
1762435487194121,-27.195122,22.804878,-3.841464,-0.056641,-0.340820,0.936523
1762435487204098,-34.756100,18.109756,-2.500000,-0.066895,-0.339844,0.926758
1762435487214075,-37.987804,5.426829,-7.926829,-0.075684,-0.340332,0.916992
1762435487224051,-35.365856,-6.890244,-11.951220,-0.083008,-0.346191,0.909668
1762435487234028,-30.548780,-16.036585,-8.597561,-0.089355,-0.354492,0.906250
1762435487244005,-28.658537,-21.768293,6.646342,-0.095703,-0.355469,0.903320
1762435487253982,-47.195122,-27.073172,14.695123,-0.102051,-0.346680,0.893555
1762435487263958,-49.268295,-45.792683,0.060976,-0.108398,-0.346191,0.884277
1762435487273936,-43.536587,-64.573174,-12.743903,-0.114258,-0.337402,0.876465
1762435487283913,-49.451221,-77.865852,-19.573172,-0.117676,-0.334473,0.871582
1762435487293890,-40.426830,-89.512199,-23.109756,-0.118652,-0.337891,0.870605
1762435487303866,-23.231709,-98.353661,-23.963415,-0.118164,-0.341309,0.869629
1762435487313844,-16.219513,-108.597565,-25.000000,-0.116211,-0.339355,0.868164
1762435487323819,-21.402439,-116.890244,-29.634148,-0.109863,-0.338379,0.870117
1762435487333796,-20.548780,-120.487808,-34.390244,-0.099121,-0.346191,0.878906
1762435487343773,5.304878,-70.792686,-15.000000,-0.069336,-0.372559,0.923828
1762435487353751,15.487805,-39.268295,-4.878049,-0.058105,-0.367676,0.931152
1762435487363726,2.804878,-10.182927,-3.414634,-0.038574,-0.381348,0.955078
1762435487373704,7.682927,4.939024,4.390244,-0.031250,-0.386719,0.967285
1762435487383680,4.268293,5.853659,7.134147,-0.026855,-0.387695,0.966309
1762435487393657,9.085366,4.207317,12.134147,-0.025879,-0.389648,0.958008
1762435487403634,18.414635,10.792684,15.060976,-0.020508,-0.391113,0.956543
1762435487413610,23.353659,28.292683,17.256098,-0.016602,-0.391602,0.957520
1762435487423587,25.975611,38.597561,23.109756,-0.015137,-0.395020,0.956543
1762435487433564,34.390244,45.609756,22.256098,-0.008789,-0.398926,0.963379
1762435487443541,60.182930,71.402443,11.036586,0.005371,-0.403809,0.988281
1762435487453518,72.500000,100.914635,1.463415,0.002441,-0.387207,0.983887
1762435487463494,22.073172,59.573174,-4.268293,-0.015137,-0.385254,0.945801
1762435487473473,18.841463,33.536587,-6.219512,-0.016602,-0.385254,0.940918
1762435487483448,31.463415,48.353661,-6.463415,-0.013672,-0.385742,0.952148
1762435487493425,5.304878,39.573174,-4.878049,-0.029785,-0.370605,0.925293
1762435487503402,-6.951220,6.097561,-6.158537,-0.035645,-0.370605,0.921875
1762435487513379,-1.036585,5.914634,-3.719512,-0.037598,-0.370605,0.928223
1762435487523355,-3.963415,7.865854,-2.073171,-0.040039,-0.365234,0.928711
1762435487533332,-12.804878,9.390244,-3.841464,-0.041016,-0.360840,0.931152
1762435487543309,-16.646341,9.268293,-5.975610,-0.043457,-0.361816,0.931152
1762435487553286,-14.451220,8.353659,-3.963415,-0.045898,-0.363770,0.930664
1762435487563262,-12.500000,7.926829,-2.012195,-0.047363,-0.363770,0.930664
1762435487573239,-12.621951,8.048780,-2.134146,-0.049316,-0.364258,0.930664
1762435487583216,-11.463415,6.951220,-1.524390,-0.051270,-0.365723,0.930664
1762435487593193,-9.573171,5.975610,-0.304878,-0.052734,-0.368652,0.930664
1762435487603170,-5.182927,3.902439,0.975610,-0.054199,-0.371094,0.930664
1762435487613146,-3.109756,3.902439,1.768293,-0.055176,-0.371582,0.930664
1762435487623126,-3.475610,4.756098,1.097561,-0.057129,-0.372070,0.930176
1762435487633101,-3.292683,4.817073,0.670732,-0.059570,-0.373047,0.930176
1762435487643077,-2.439024,4.573171,1.524390,-0.061523,-0.373047,0.930176
1762435487653054,-2.682927,4.390244,1.707317,-0.063965,-0.373047,0.930664
1762435487663030,-3.048780,4.329268,2.256098,-0.065430,-0.372070,0.931641
1762435487673007,-4.390244,5.914634,2.804878,-0.066895,-0.372559,0.931641
1762435487682984,-3.292683,8.658537,3.231707,-0.066895,-0.375977,0.933105
1762435487692961,17.012196,16.768293,4.146341,-0.065918,-0.382812,0.938965
1762435487702938,34.878048,25.243902,3.597561,-0.066895,-0.383301,0.937500
1762435487712914,29.390245,26.280489,5.914634,-0.071289,-0.381348,0.932617
1762435487722891,14.207317,18.719513,11.768293,-0.076660,-0.377930,0.926758
1762435487732868,0.121951,8.597561,16.402439,-0.082031,-0.374512,0.921875
1762435487742845,-4.634147,-1.402439,16.280489,-0.086426,-0.371094,0.919434
1762435487752822,-5.182927,-9.390244,11.951220,-0.089844,-0.368164,0.917969
1762435487762799,-2.195122,-16.890244,7.439024,-0.092285,-0.366699,0.916992
1762435487772776,-1.219512,-22.865854,4.268293,-0.093750,-0.364746,0.916016
1762435487782754,-3.719512,-26.524391,2.804878,-0.094238,-0.364258,0.916016
1762435487792729,-2.621951,-28.963415,3.170732,-0.094727,-0.364746,0.916992
1762435487802706,-1.646342,-31.463415,3.780488,-0.095215,-0.364746,0.917480
1762435487812682,-1.341463,-33.841465,4.390244,-0.094727,-0.364258,0.918945
1762435487822660,-0.426829,-36.463417,4.085366,-0.094727,-0.362305,0.919922
1762435487832636,-2.439024,-43.841465,-0.548781,-0.094238,-0.356934,0.918945
1762435487842613,-11.646341,-51.890244,-10.975610,-0.089844,-0.344238,0.921875
1762435487852590,-30.060976,-54.817074,-26.219513,-0.085938,-0.342285,0.926270
1762435487862566,17.378050,7.682927,-12.317074,-0.055176,-0.374023,0.973633
1762435487872544,57.378052,51.219513,17.134148,-0.060547,-0.390625,0.973145
1762435487882520,68.048782,52.195122,7.256098,-0.054688,-0.375000,0.979004
1762435487892497,45.731709,75.548782,-7.682927,-0.052246,-0.363281,0.985352
1762435487902474,9.146341,47.743904,0.000000,-0.071289,-0.365723,0.948730
1762435487912451,18.597561,23.109756,1.341463,-0.073242,-0.358887,0.945312
1762435487922428,21.707317,29.451220,0.243902,-0.071289,-0.359863,0.953613
1762435487932407,35.609756,44.451221,2.500000,-0.070312,-0.358398,0.964355
1762435487942381,3.414634,17.743902,6.036585,-0.087891,-0.345215,0.927734
1762435487952358,-4.146341,-5.243903,-0.914634,-0.086426,-0.342285,0.929688
1762435487962335,-2.500000,1.219512,-0.426829,-0.088867,-0.346191,0.929199
1762435487972311,2.560976,-0.304878,2.439024,-0.089844,-0.345215,0.931152
1762435487982289,0.731707,-1.097561,1.402439,-0.090820,-0.342285,0.932617
1762435487992265,-4.329268,-1.341463,0.426829,-0.092285,-0.337891,0.933594
1762435488002242,-9.573171,-1.402439,-1.097561,-0.094238,-0.334473,0.933594
1762435488012219,-13.536586,-1.463415,-1.219512,-0.096191,-0.333008,0.933105
1762435488022195,-14.634147,-1.951220,-0.487805,-0.097656,-0.332520,0.933105
1762435488032172,-14.756098,-2.865854,0.243902,-0.098145,-0.333008,0.933594
1762435488042149,-13.902439,-3.414634,0.670732,-0.098633,-0.332520,0.933594
1762435488052126,-14.939025,-3.597561,1.402439,-0.099121,-0.336426,0.934082
1762435488062103,-6.768293,-2.256098,1.646342,-0.099121,-0.337891,0.936523
1762435488072080,-3.963415,0.304878,2.500000,-0.099609,-0.339844,0.936523
1762435488082057,-2.439024,0.060976,3.658537,-0.102051,-0.337891,0.934570
1762435488092035,-19.390244,-4.695122,7.378049,-0.106445,-0.336426,0.926270
1762435488102010,-22.378050,-13.597561,9.939025,-0.108887,-0.336426,0.925293
1762435488111987,-19.207317,-14.817074,6.341464,-0.107422,-0.337402,0.928711
1762435488121964,-8.048780,-9.695122,1.829268,-0.105469,-0.339844,0.934082
1762435488131942,2.378049,-3.902439,-0.792683,-0.103516,-0.341797,0.938965
1762435488141917,5.365854,-0.548781,-0.670732,-0.103027,-0.343262,0.940918
1762435488151894,3.719512,-0.060976,2.378049,-0.103516,-0.344238,0.940430
1762435488161871,1.280488,-2.378049,5.426829,-0.104980,-0.343750,0.937988
1762435488171848,-2.256098,-6.463415,6.890244,-0.105957,-0.341309,0.936523
1762435488181824,-6.097561,-10.060976,5.914634,-0.106445,-0.339355,0.936035
1762435488191801,-5.731708,-12.439025,3.170732,-0.105957,-0.339355,0.936523
1762435488201779,-2.500000,-13.231708,0.792683,-0.104980,-0.339355,0.936523
1762435488211755,-2.865854,-13.292684,-1.158537,-0.104492,-0.339355,0.936035
1762435488221732,-4.329268,-13.780488,-2.621951,-0.103516,-0.340820,0.935059
1762435488231709,-3.414634,-15.548780,-2.804878,-0.103516,-0.341797,0.934082
1762435488241685,-3.292683,-17.256098,-2.256098,-0.103027,-0.342773,0.933594
1762435488251664,-3.658537,-18.841463,-1.280488,-0.102539,-0.344238,0.933594
1762435488261639,-3.353659,-19.878050,0.792683,-0.102051,-0.344238,0.934570
1762435488271616,-4.451220,-20.853659,2.256098,-0.101562,-0.344238,0.935059
1762435488281593,-4.268293,-22.317074,2.195122,-0.100098,-0.344238,0.935547
1762435488291570,-5.121951,-21.646341,1.402439,-0.097656,-0.344238,0.936035
1762435488301546,-5.182927,-21.097561,-0.182927,-0.095215,-0.343750,0.935547
1762435488311523,-7.317073,-22.682928,-3.048780,-0.093750,-0.342773,0.934082
1762435488321500,-9.024390,-23.841463,-5.060976,-0.090820,-0.343750,0.934570
1762435488331477,-4.878049,-22.073172,-4.817073,-0.087402,-0.347168,0.937012
1762435488341453,-1.097561,-17.256098,-2.682927,-0.083984,-0.348633,0.940918
1762435488351430,-1.463415,-10.487805,0.121951,-0.080566,-0.349609,0.944336
1762435488361407,0.304878,-7.500000,0.182927,-0.078125,-0.350098,0.944824
1762435488371384,2.500000,-9.085366,-1.463415,-0.077148,-0.349609,0.943359
1762435488381361,3.536585,-7.378049,-1.097561,-0.073730,-0.351562,0.945801
1762435488391337,8.780488,-0.853659,2.317073,-0.070801,-0.355957,0.949219
1762435488401316,25.182928,5.792683,3.475610,-0.065918,-0.357910,0.957520
1762435488411291,19.390244,16.951220,6.097561,-0.065430,-0.357422,0.956543
1762435488421268,19.817074,12.865854,7.926829,-0.065918,-0.356445,0.952148
1762435488431245,20.548780,18.048780,4.573171,-0.060059,-0.359863,0.960938
1762435488441223,36.768295,39.695122,-2.378049,-0.053223,-0.358398,0.975098
1762435488451198,37.317074,57.804878,-9.634147,-0.048828,-0.353027,0.982422
1762435488461175,10.670732,50.182926,-1.951220,-0.067383,-0.341309,0.949219
1762435488471152,1.646342,4.390244,-0.792683,-0.073730,-0.340332,0.931641
1762435488481129,2.621951,2.804878,-2.012195,-0.072266,-0.341309,0.936523
1762435488491106,2.378049,5.914634,0.000000,-0.073730,-0.340820,0.937012
1762435488501083,1.158537,1.829268,0.304878,-0.074219,-0.337402,0.939941
1762435488511059,-3.902439,1.463415,-1.707317,-0.074707,-0.334961,0.941895
1762435488521037,-5.304878,4.268293,-2.560976,-0.075195,-0.334473,0.943359
1762435488531013,-2.317073,10.243902,-3.292683,-0.075195,-0.333984,0.947266
1762435488540990,-0.670732,15.426829,-3.536585,-0.075195,-0.333008,0.951172
1762435488550967,-0.975610,21.158537,-4.573171,-0.074219,-0.332031,0.955566
1762435488560944,1.219512,26.768293,-5.609756,-0.074219,-0.333984,0.959961
1762435488570920,14.085366,37.987804,-4.817073,-0.071289,-0.337402,0.969238
1762435488580897,-4.390244,28.109756,-0.670732,-0.086914,-0.325684,0.937500
1762435488590874,-10.731708,-0.243902,-4.817073,-0.088867,-0.328613,0.932617
1762435488600851,-5.853659,3.719512,-4.146341,-0.089844,-0.332031,0.935547
1762435488610828,-2.073171,1.585366,-1.158537,-0.092773,-0.333008,0.936035
1762435488620804,-2.134146,-0.731707,-0.609756,-0.094238,-0.331055,0.938477
1762435488630781,-6.036585,-1.219512,-0.914634,-0.096191,-0.328613,0.938477
1762435488640758,-8.902439,-1.158537,-1.280488,-0.097656,-0.326660,0.938477
1762435488650736,-10.792684,-0.731707,-2.073171,-0.099121,-0.325684,0.938965
1762435488660712,-12.439025,0.365854,-2.865854,-0.099121,-0.325684,0.939941
1762435488670689,-12.195122,1.524390,-4.512195,-0.099609,-0.327637,0.939941
1762435488680666,-8.902439,1.219512,-4.390244,-0.100586,-0.331543,0.939453
1762435488690642,-4.024390,1.097561,-2.682927,-0.101562,-0.334473,0.938477
1762435488700619,-0.792683,0.548781,-1.585366,-0.102539,-0.334961,0.938477
1762435488710598,-0.853659,-0.121951,-1.219512,-0.104004,-0.333984,0.938965
1762435488720573,-3.658537,-0.304878,-1.463415,-0.105469,-0.332520,0.939453
1762435488730549,-5.365854,-0.609756,-1.768293,-0.105957,-0.332031,0.939453
1762435488740526,-6.097561,-0.304878,-1.524390,-0.106445,-0.332520,0.939453
1762435488750504,-5.548780,-0.243902,-1.158537,-0.106445,-0.333984,0.939453
1762435488760480,-4.634147,-0.304878,-0.914634,-0.106445,-0.334961,0.939453
1762435488770457,-4.207317,-0.060976,-0.731707,-0.106445,-0.336426,0.939453
1762435488780434,-3.048780,-0.548781,-0.304878,-0.106934,-0.337891,0.938477
1762435488790411,-2.865854,-1.097561,0.304878,-0.107422,-0.336914,0.938477
1762435488800387,-5.609756,-0.975610,-0.060976,-0.108398,-0.335938,0.937988
1762435488810364,-7.500000,-1.158537,-0.243902,-0.108887,-0.336426,0.937988
1762435488820341,-8.109756,-1.402439,-0.060976,-0.109863,-0.337402,0.937988
1762435488830318,-7.987805,-1.097561,0.426829,-0.109863,-0.338379,0.937012
1762435488840294,-5.792683,-1.280488,0.182927,-0.110352,-0.339355,0.936523
1762435488850271,-8.170732,-1.463415,1.341463,-0.111328,-0.341797,0.934570
1762435488860248,-7.256098,-4.024390,2.926829,-0.112305,-0.343262,0.932617
1762435488870226,-4.268293,-3.231707,2.256098,-0.110840,-0.345703,0.935547
1762435488880202,0.609756,3.048780,1.585366,-0.109863,-0.346680,0.938965
1762435488890179,2.500000,1.707317,4.268293,-0.112305,-0.347168,0.934570
1762435488900155,1.768293,0.487805,2.743902,-0.112793,-0.345703,0.934082
1762435488910133,-1.341463,-1.219512,2.134146,-0.113281,-0.344238,0.933594
1762435488920109,-4.512195,-2.804878,2.256098,-0.113770,-0.343262,0.934082
1762435488930086,-5.853659,-4.390244,1.585366,-0.113281,-0.343262,0.935059
1762435488940063,-4.451220,-5.060976,0.426829,-0.113281,-0.344727,0.935547
1762435488950040,-1.463415,-5.792683,0.121951,-0.113770,-0.346191,0.935059
1762435488960017,-0.914634,-7.134147,0.853659,-0.113770,-0.347168,0.933594
1762435488969993,-2.682927,-9.207317,1.829268,-0.114746,-0.347656,0.932129
1762435488979970,-2.073171,-11.951220,2.317073,-0.114746,-0.348633,0.931152
1762435488989948,-0.731707,-13.902439,2.378049,-0.114746,-0.350098,0.930664
1762435488999924,0.731707,-15.304878,2.743902,-0.114746,-0.351074,0.929688
1762435489009901,1.158537,-16.951220,3.536585,-0.114258,-0.351562,0.929199
1762435489019879,-0.243902,-18.292683,4.451220,-0.114258,-0.351562,0.929199
1762435489029854,-0.121951,-19.207317,5.182927,-0.113281,-0.352051,0.929688
1762435489039831,0.792683,-20.182928,5.975610,-0.111816,-0.351562,0.930664
1762435489049808,0.426829,-21.341463,6.219512,-0.110840,-0.350586,0.931152
1762435489059786,-1.280488,-22.378050,5.426829,-0.108887,-0.349121,0.932129
1762435489069761,-2.926829,-21.036587,4.085366,-0.106445,-0.349609,0.933105
1762435489079738,0.000000,-19.329269,3.353659,-0.104004,-0.350586,0.934082
1762435489089715,1.585366,-17.439024,2.804878,-0.101074,-0.351074,0.935059
1762435489099692,-0.304878,-14.451220,2.378049,-0.098633,-0.352051,0.936035
1762435489109669,1.280488,-12.256098,2.621951,-0.096191,-0.353027,0.938477
1762435489119645,1.829268,-9.451220,3.902439,-0.093750,-0.354492,0.940918
1762435489129622,5.060976,-9.695122,5.304878,-0.092773,-0.357422,0.943359
1762435489139599,8.963415,-19.451220,7.378049,-0.092285,-0.359375,0.947754
1762435489149576,1.463415,-27.682928,12.987805,-0.088867,-0.360840,0.953125
1762435489159553,-2.500000,-28.963415,21.646341,-0.085449,-0.365723,0.956055
1762435489169530,1.646342,-26.707317,29.329269,-0.082031,-0.370605,0.954102
1762435489179508,10.975610,-25.609756,33.841465,-0.080566,-0.375977,0.947754
1762435489189483,21.463415,-31.585367,36.524391,-0.081055,-0.381348,0.937500
1762435489199460,30.304878,-46.768295,41.402439,-0.083008,-0.382324,0.927246
1762435489209437,18.231709,-60.548782,49.756100,-0.082520,-0.375977,0.922363
1762435489219414,-10.060976,-65.000000,58.597561,-0.079102,-0.366699,0.925293
1762435489229391,-26.707317,-61.097561,61.829269,-0.073242,-0.364258,0.934570
1762435489239367,-3.658537,-54.207317,63.719513,-0.067871,-0.378418,0.944336
1762435489249344,54.146343,-44.573174,76.585365,-0.063965,-0.397461,0.951660
1762435489259322,100.243904,-35.609756,104.573174,-0.061035,-0.415527,0.953125
1762435489269298,125.792686,-31.280489,144.695129,-0.057129,-0.423340,0.948242
1762435489279275,98.597565,-25.182928,172.073181,-0.052246,-0.410156,0.941895
1762435489289252,71.646339,-25.121952,170.243912,-0.049316,-0.393555,0.933594
1762435489299229,83.048782,-33.719513,139.024399,-0.047363,-0.372070,0.927734
1762435489309205,113.292686,-43.536587,88.719513,-0.044922,-0.345703,0.924316
1762435489319182,114.817078,-50.365856,55.060978,-0.042969,-0.319336,0.924316
1762435489329161,72.804878,-56.097561,53.719513,-0.040039,-0.303711,0.929688
1762435489339136,48.963417,-57.134148,64.695122,-0.034668,-0.293457,0.938965
1762435489349112,40.548782,-49.085365,62.256100,-0.027832,-0.274902,0.948730
1762435489359089,31.097561,-39.512196,45.731709,-0.022461,-0.254883,0.953613
1762435489369068,22.621952,-38.353661,30.975611,-0.020508,-0.242188,0.953125
1762435489379043,19.634148,-46.646343,27.865854,-0.021484,-0.241211,0.948730
1762435489389020,22.317074,-62.865856,36.768295,-0.022949,-0.240723,0.941895
1762435489398997,16.036585,-81.097565,39.024391,-0.021973,-0.232910,0.936523
1762435489408973,11.890244,-95.365852,30.487806,-0.019043,-0.216309,0.931641
1762435489418950,-6.158537,-105.670731,14.878049,-0.010742,-0.197266,0.932617
1762435489428928,-27.804878,-101.829269,6.463415,0.001953,-0.187988,0.942383
1762435489438904,-33.963417,-78.536591,3.231707,0.018555,-0.183594,0.959473
1762435489448881,-31.646341,-41.707317,0.914634,0.034668,-0.185547,0.977539
1762435489458858,-19.207317,-5.670732,2.682927,0.046875,-0.190430,0.989746
1762435489468834,-8.231708,17.195122,2.012195,0.055176,-0.186523,0.994141
1762435489478811,-13.963415,29.329269,-8.658537,0.062012,-0.175781,0.995605
1762435489488789,-28.719513,38.597561,-22.378050,0.066406,-0.166992,0.994629
1762435489498765,-41.707317,42.134148,-33.231709,0.069824,-0.160645,0.993652
1762435489508742,-47.865856,42.987804,-40.487804,0.071289,-0.158203,0.992188
1762435489518722,-46.280487,36.158539,-41.036587,0.071289,-0.156738,0.989746
1762435489528696,-47.378052,27.012196,-41.341465,0.071777,-0.152344,0.989258
1762435489538672,-48.719513,23.170732,-45.548782,0.074707,-0.151367,0.993164
1762435489548649,-41.524391,47.134148,-52.073174,0.083008,-0.151367,1.006836
1762435489558626,-47.012196,63.414635,-50.000000,0.079590,-0.161621,1.002441
1762435489568603,-39.268295,54.207317,-45.000000,0.073242,-0.166016,0.989746
1762435489578579,-44.939026,44.634148,-46.585365,0.069336,-0.169434,0.981934
1762435489588556,-54.634148,40.670734,-47.621952,0.065918,-0.177246,0.974609
1762435489598533,-56.524391,35.121952,-45.731709,0.061035,-0.187012,0.965332
1762435489608511,-53.353661,28.170732,-44.451221,0.056641,-0.196777,0.956543
1762435489618487,-46.097561,21.829269,-42.378048,0.051758,-0.208008,0.949219
1762435489628464,-33.780487,15.609756,-38.170734,0.047363,-0.218262,0.943848
1762435489638442,-24.268293,9.451220,-34.146343,0.043457,-0.225098,0.939941
1762435489648417,-19.390244,3.902439,-32.256100,0.040527,-0.229980,0.937012
1762435489658394,-17.743902,-2.073171,-32.378048,0.038086,-0.234863,0.935547
1762435489668371,-17.378050,-9.695122,-32.317074,0.037109,-0.239746,0.936035
1762435489678348,-18.841463,-17.012196,-31.280489,0.037109,-0.244629,0.937988
1762435489688325,-21.951220,-22.560976,-28.597561,0.038574,-0.250977,0.939941
1762435489698301,-20.975611,-26.097561,-23.902439,0.040527,-0.259766,0.942871
1762435489708278,-19.695122,-26.280489,-17.743902,0.043945,-0.268555,0.946289
1762435489718255,-16.463415,-21.341463,-14.268293,0.049805,-0.279785,0.954102
1762435489728233,-6.585366,-12.865854,-15.426829,0.054199,-0.281738,0.958496
1762435489738209,-5.914634,-5.792683,-17.256098,0.056641,-0.282715,0.958496
1762435489748186,-10.487805,-1.829268,-14.329268,0.058594,-0.291992,0.960938
1762435489758162,-6.585366,1.463415,-11.890244,0.062500,-0.293945,0.965332
1762435489768139,-15.609756,12.865854,-9.695122,0.064453,-0.294922,0.969238
1762435489778116,-6.097561,15.914635,-9.024390,0.065430,-0.295410,0.972656
1762435489788093,5.243903,20.914635,-20.792683,0.066406,-0.289062,0.973633
1762435489798071,1.768293,26.585367,-31.585367,0.065918,-0.286621,0.970703
1762435489808047,-3.414634,25.000000,-34.085365,0.063477,-0.287109,0.964844
1762435489818023,-15.000000,20.182928,-28.353659,0.061035,-0.289551,0.959961
1762435489828000,-27.560976,14.634147,-17.134148,0.060059,-0.296387,0.958496
1762435489837978,-29.207317,9.451220,-6.890244,0.060547,-0.302246,0.961426
1762435489847954,-20.792683,9.146341,-4.573171,0.062500,-0.307617,0.967285
1762435489857931,-5.060976,15.365854,-13.414635,0.064941,-0.306152,0.972168
1762435489867907,-20.000000,29.024391,-19.085367,0.066895,-0.304688,0.974121
1762435489877885,-17.621952,30.243904,-9.817074,0.062500,-0.323242,0.970215
1762435489887861,3.597561,23.231709,-9.207317,0.060547,-0.320801,0.964355
1762435489897839,-15.182927,22.743902,-10.060976,0.058105,-0.321777,0.958008
1762435489907815,-8.170732,16.219513,-8.658537,0.055176,-0.325684,0.954590
1762435489917792,-27.195122,20.182928,-7.743903,0.054688,-0.323730,0.956543
1762435489927769,-22.256098,21.280489,-8.780488,0.055664,-0.323730,0.959961
1762435489937746,-21.219513,28.231709,-11.707317,0.055176,-0.323730,0.963379
1762435489947724,-13.414635,33.536587,-11.829268,0.052734,-0.327148,0.964355
1762435489957699,-2.073171,35.243904,-10.365854,0.048828,-0.328125,0.960938
1762435489967676,0.792683,31.524391,-12.500000,0.043457,-0.329590,0.954590
1762435489977653,4.817073,23.719513,-14.146341,0.036621,-0.333008,0.946777
1762435489987629,7.865854,13.231708,-13.658537,0.029785,-0.337402,0.937012
1762435489997606,6.646342,1.158537,-9.634147,0.021973,-0.340332,0.927734
1762435490007584,-0.609756,-12.926829,-4.085366,0.016602,-0.345215,0.922363
1762435490017560,-3.780488,-24.390244,3.902439,0.013184,-0.350586,0.920410
1762435490027537,-6.890244,-29.939026,13.353659,0.012695,-0.354980,0.922852
1762435490037514,-5.853659,-30.182928,20.975611,0.013672,-0.357422,0.927246
1762435490047490,-7.987805,-23.048780,23.902439,0.016113,-0.356934,0.933594
1762435490057467,-4.085366,-14.573171,22.195122,0.018066,-0.356934,0.938965
1762435490067444,5.792683,-9.268293,17.317074,0.018555,-0.354980,0.940918
1762435490077421,11.707317,-7.621952,12.073171,0.017578,-0.354980,0.939941
1762435490087398,24.817074,-12.621951,10.914635,0.015137,-0.357910,0.936523
1762435490097375,26.219513,-18.414635,14.390244,0.013672,-0.357422,0.933105
1762435490107353,21.097561,-22.621952,21.646341,0.012695,-0.362305,0.929688
1762435490117328,26.219513,-27.926830,31.280489,0.012207,-0.365234,0.927734
1762435490127305,22.073172,-32.256100,37.865856,0.012207,-0.363770,0.925781
1762435490137282,16.646341,-35.426830,39.878048,0.013672,-0.361328,0.925781
1762435490147260,17.500000,-35.914635,38.658539,0.015625,-0.359375,0.927734
1762435490157236,21.158537,-35.060978,35.365856,0.019043,-0.354492,0.931641
1762435490167212,18.109756,-30.548780,29.756098,0.022949,-0.347168,0.936035
1762435490177190,15.060976,-25.304878,22.743902,0.026367,-0.340820,0.940430
1762435490187166,15.121952,-22.134148,15.060976,0.028320,-0.336426,0.942871
1762435490197143,17.743902,-20.487804,10.121951,0.030762,-0.333496,0.944824
1762435490207120,16.829269,-14.390244,9.634147,0.033691,-0.332520,0.947266
1762435490217097,19.146341,-12.926829,9.512196,0.035156,-0.332031,0.948242
1762435490227073,23.170732,-12.439025,10.609756,0.037598,-0.332031,0.950684
1762435490237050,24.451220,-12.256098,11.463415,0.039551,-0.329590,0.951660
1762435490247027,21.646341,-11.890244,9.634147,0.041016,-0.327637,0.952637
1762435490257007,23.841463,-12.621951,9.939025,0.042969,-0.324707,0.953613
1762435490266981,22.073172,-12.134147,10.487805,0.043945,-0.321289,0.953613
1762435490276958,19.329269,-11.097561,9.573171,0.044922,-0.317383,0.952637
1762435490286934,17.500000,-8.475610,7.621952,0.046387,-0.313965,0.952637
1762435490296911,18.048780,-8.048780,7.926829,0.048828,-0.312988,0.955078
1762435490306888,15.731708,-7.256098,6.524390,0.050781,-0.309082,0.956055
1762435490316865,11.463415,-6.768293,3.963415,0.053223,-0.304688,0.957520
1762435490326842,5.182927,-5.487805,1.707317,0.054688,-0.299805,0.958984
1762435490336819,-2.378049,-3.536585,-1.280488,0.056152,-0.294922,0.959961
1762435490346795,-5.670732,-3.231707,-2.926829,0.056152,-0.292969,0.961426
1762435490356773,-8.597561,-4.817073,-4.268293,0.057617,-0.289551,0.963867
1762435490366749,-11.646341,-5.975610,-5.731708,0.059082,-0.288086,0.964844
1762435490376726,-14.207317,-6.829268,-6.951220,0.059570,-0.287598,0.964844
1762435490386703,-13.353659,-7.012195,-7.804878,0.060547,-0.289062,0.963867
1762435490396680,-9.939025,-6.219512,-7.621952,0.060059,-0.291992,0.961914
1762435490406656,-6.219512,-4.512195,-6.219512,0.060059,-0.294922,0.959473
1762435490416635,-3.719512,-3.963415,-3.048780,0.060547,-0.295410,0.958496
1762435490426610,-6.524390,-4.085366,-1.890244,0.061035,-0.292480,0.957520
1762435490436587,-12.073171,-2.804878,-1.768293,0.062012,-0.290039,0.957031
1762435490446565,-16.341463,-0.914634,-1.646342,0.062988,-0.288574,0.956543
1762435490456541,-16.646341,0.121951,-2.073171,0.063965,-0.289551,0.956055
1762435490466518,-13.170732,1.341463,-2.500000,0.065918,-0.290039,0.957031
1762435490476495,-9.939025,2.134146,-4.024390,0.067871,-0.290527,0.958008
1762435490486471,-10.060976,1.768293,-5.975610,0.069336,-0.292480,0.959473
1762435490496448,-5.975610,0.121951,-4.085366,0.068848,-0.297363,0.958496
1762435490506425,2.134146,-2.804878,-0.670732,0.068848,-0.300293,0.957031
1762435490516402,4.573171,-4.024390,1.219512,0.068848,-0.299805,0.957031
1762435490526378,1.768293,-3.475610,0.731707,0.069336,-0.297852,0.956055
1762435490536356,-3.475610,-2.256098,1.097561,0.069336,-0.296875,0.955566
1762435490546332,-6.158537,-0.975610,1.158537,0.069336,-0.296875,0.954590
1762435490556309,-5.609756,-0.426829,0.914634,0.069824,-0.297852,0.954102
1762435490566288,-3.658537,-0.365854,0.853659,0.070312,-0.298340,0.954102
1762435490576263,-2.743902,-0.487805,0.060976,0.071289,-0.298828,0.954102
1762435490586240,-2.134146,-0.548781,-0.304878,0.071777,-0.299316,0.954590
1762435490596216,-1.829268,-0.853659,-0.060976,0.071777,-0.299316,0.955078
1762435490606195,-2.317073,-1.585366,0.121951,0.072266,-0.299316,0.955566
1762435490616170,-3.902439,-1.829268,0.304878,0.071777,-0.298828,0.955566
1762435490626147,-5.670732,-1.585366,0.426829,0.071777,-0.298828,0.954590
1762435490636124,-6.951220,-0.609756,0.121951,0.071777,-0.298828,0.954102
1762435490646101,-6.585366,-0.060976,-0.487805,0.071777,-0.300293,0.953125
1762435490656077,-5.060976,-0.304878,-0.426829,0.071777,-0.302734,0.952637
1762435490666054,-3.780488,-0.670732,-0.121951,0.072266,-0.303711,0.952637
1762435490676031,-4.939024,-0.548781,0.243902,0.072754,-0.303711,0.952637
1762435490686008,-7.560976,0.121951,0.182927,0.073242,-0.302734,0.952637
1762435490695985,-10.182927,1.036585,-0.182927,0.073242,-0.302246,0.953125
1762435490705962,-10.182927,0.853659,-0.243902,0.073242,-0.302734,0.953613
1762435490715938,-8.658537,0.243902,0.000000,0.073242,-0.303711,0.954590
1762435490725916,-7.621952,-0.121951,-0.487805,0.073242,-0.304688,0.954590
1762435490735892,-7.195122,-0.304878,-1.280488,0.073242,-0.306641,0.954102
1762435490745869,-5.792683,-0.548781,-1.524390,0.073242,-0.309570,0.952637
1762435490755846,-3.048780,-0.853659,-1.463415,0.073242,-0.312988,0.951660
1762435490765823,0.731707,-1.402439,-0.792683,0.072754,-0.315918,0.950684
1762435490775799,1.951220,-2.134146,0.426829,0.072754,-0.315918,0.949707
1762435490785776,-0.243902,-2.012195,0.731707,0.072754,-0.314941,0.950195
1762435490795753,-3.231707,-1.890244,1.097561,0.072754,-0.313965,0.950684
1762435490805730,-5.426829,-1.890244,1.524390,0.072754,-0.312988,0.951172
1762435490815707,-6.524390,-1.524390,1.219512,0.072754,-0.311523,0.951172
1762435490825684,-6.951220,-0.426829,-0.121951,0.072754,-0.312012,0.951172
1762435490835661,-6.036585,0.365854,-0.609756,0.072754,-0.313477,0.950684
1762435490845637,-5.304878,0.609756,-0.670732,0.072754,-0.314453,0.949707
1762435490855614,-3.841464,0.426829,-0.182927,0.072754,-0.316406,0.949219
1762435490865591,-2.621951,-0.304878,0.792683,0.072754,-0.318359,0.948730
1762435490875570,-0.609756,-1.707317,2.073171,0.072754,-0.320312,0.948730
1762435490885545,-0.243902,-2.804878,2.926829,0.073242,-0.320801,0.949707
1762435490895522,-0.670732,-3.170732,3.109756,0.073242,-0.321777,0.949219
1762435490905498,1.280488,-3.719512,3.170732,0.073242,-0.323730,0.949219
1762435490915476,5.609756,-4.390244,4.146341,0.072754,-0.326172,0.948730
1762435490925452,10.975610,-5.670732,5.243903,0.072266,-0.328125,0.948242
1762435490935429,14.634147,-6.463415,6.402439,0.071777,-0.328125,0.948242
1762435490945406,13.902439,-6.524390,6.768293,0.072266,-0.325684,0.948730
1762435490955383,10.182927,-5.914634,5.731708,0.072754,-0.323730,0.949219
1762435490965359,8.109756,-6.036585,6.097561,0.072754,-0.321777,0.949707
1762435490975336,6.463415,-5.731708,7.134147,0.072266,-0.321289,0.949219
1762435490985313,13.231708,-7.134147,10.000000,0.071289,-0.325684,0.947754
1762435490995290,22.804878,-10.426829,14.512196,0.071289,-0.327148,0.947754
1762435491005267,25.487806,-11.463415,15.426829,0.073242,-0.325195,0.948730
1762435491015244,22.012196,-9.878049,12.317074,0.075195,-0.321777,0.950684
1762435491025223,17.012196,-7.926829,8.963415,0.076172,-0.319336,0.951660
1762435491035198,13.536586,-7.195122,7.682927,0.077148,-0.316895,0.952148
1762435491045174,9.146341,-5.487805,7.317073,0.077637,-0.314941,0.952148
1762435491055151,6.646342,-5.000000,7.621952,0.077637,-0.313965,0.951660
1762435491065128,13.292684,-5.853659,10.365854,0.076660,-0.317383,0.951660
1762435491075105,24.878050,-7.987805,17.439024,0.076172,-0.323730,0.951660
1762435491085082,31.097561,-10.548780,27.682928,0.076660,-0.318848,0.950684
1762435491095058,0.365854,-16.524391,47.195122,0.073242,-0.332520,0.947266
1762435491105035,19.756098,-23.414635,55.304878,0.076172,-0.328125,0.950684
1762435491115012,35.121952,-16.219513,37.195122,0.080566,-0.315430,0.956055
1762435491124989,31.219513,-6.951220,15.853659,0.082520,-0.304199,0.958008
1762435491134966,20.792683,-7.560976,11.036586,0.081543,-0.299805,0.957031
1762435491144942,9.451220,-12.439025,16.463415,0.081055,-0.297363,0.958008
1762435491154920,4.207317,-13.719513,18.902439,0.082520,-0.291992,0.959961
1762435491164896,1.646342,-10.000000,14.939025,0.084473,-0.285156,0.961914
1762435491174873,2.317073,-8.414635,9.268293,0.083984,-0.284180,0.960449
1762435491184852,11.158537,-13.231708,12.256098,0.082031,-0.288574,0.956543
1762435491194827,13.292684,-20.121952,20.975611,0.081055,-0.291504,0.953125
1762435491204804,14.512196,-24.024391,23.109756,0.080566,-0.289062,0.950195
1762435491214781,13.231708,-25.182928,18.048780,0.081055,-0.284668,0.947266
1762435491224758,10.182927,-27.926830,14.085366,0.081055,-0.280762,0.944824
1762435491234734,6.707317,-34.146343,12.256098,0.082520,-0.275391,0.944824
1762435491244711,2.621951,-40.000000,10.548780,0.086426,-0.272461,0.949219
1762435491254688,5.426829,-30.792685,8.658537,0.094238,-0.267578,0.960938
1762435491264665,1.768293,-16.951220,7.804878,0.097656,-0.266113,0.965820
1762435491274642,3.170732,-16.585365,9.146341,0.098145,-0.265137,0.963867
1762435491284619,6.341464,-17.682928,7.012195,0.099609,-0.261719,0.962891
1762435491294595,4.390244,-15.121952,2.500000,0.102051,-0.260254,0.962402
1762435491304572,3.597561,-12.743903,1.158537,0.104492,-0.261230,0.961914
1762435491314549,8.902439,-11.341464,-0.243902,0.106934,-0.259766,0.961914
1762435491324526,8.414635,-10.975610,-0.975610,0.108887,-0.260254,0.961914
1762435491334505,8.597561,-10.914635,-0.304878,0.110840,-0.258301,0.962891
1762435491344480,4.695122,-10.060976,-0.182927,0.112793,-0.254883,0.962891
1762435491354456,-0.792683,-8.414635,-1.402439,0.114258,-0.251465,0.961914
1762435491364433,-4.390244,-6.158537,-2.865854,0.116211,-0.249512,0.961426
1762435491374410,-6.402439,-3.414634,-4.207317,0.117676,-0.249512,0.960938
1762435491384387,-8.841464,-0.426829,-5.609756,0.119629,-0.249512,0.960938
1762435491394364,-10.914635,1.829268,-7.073171,0.121094,-0.250488,0.960449
1762435491404340,-12.682927,2.804878,-7.560976,0.122070,-0.250000,0.959961
1762435491414317,-14.634147,3.780488,-8.536586,0.124023,-0.249023,0.960938
1762435491424294,-18.170732,4.329268,-9.939025,0.125488,-0.247070,0.961914
1762435491434271,-21.402439,3.963415,-11.036586,0.126465,-0.245117,0.961914
1762435491444248,-23.780489,3.536585,-12.682927,0.127441,-0.244141,0.961914
1762435491454225,-26.280489,4.024390,-13.597561,0.128418,-0.244629,0.961426
1762435491464201,-26.646341,4.207317,-13.475610,0.128418,-0.247070,0.960938
1762435491474178,-25.609756,4.146341,-12.560976,0.128906,-0.249512,0.960449
1762435491484155,-25.914635,5.000000,-12.439025,0.130371,-0.251465,0.960938
1762435491494134,-28.231709,6.341464,-13.719513,0.131836,-0.253906,0.960938
1762435491504109,-27.926830,7.378049,-15.487805,0.133301,-0.256836,0.960449
1762435491514086,-25.487806,7.621952,-16.524391,0.134277,-0.260254,0.960449
1762435491524062,-23.475611,8.597561,-17.500000,0.135254,-0.262207,0.960938
1762435491534040,-24.207317,10.731708,-19.390244,0.136719,-0.264160,0.962402
1762435491544016,-23.292683,14.268293,-21.829269,0.138672,-0.267090,0.964355
1762435491553993,-15.853659,19.512196,-26.341465,0.142090,-0.267578,0.969727
1762435491563970,-18.536587,30.853659,-34.512196,0.145996,-0.267090,0.975098
1762435491573947,-34.451221,38.902439,-35.304878,0.144043,-0.270996,0.975586
1762435491583924,-25.121952,35.060978,-27.073172,0.142090,-0.274414,0.974121
1762435491593900,-18.231709,34.756100,-24.695122,0.139160,-0.279297,0.970215
1762435491603877,-6.646342,43.719513,-27.926830,0.138184,-0.281738,0.970703
1762435491613855,-2.378049,59.451221,-33.414635,0.136719,-0.278320,0.971680
1762435491623832,-11.646341,63.780491,-35.609756,0.132812,-0.276855,0.969238
1762435491633808,-20.243902,58.353661,-33.536587,0.127441,-0.277832,0.965820
1762435491643787,-22.317074,51.219513,-31.219513,0.122070,-0.281250,0.961426
1762435491653762,-19.085367,43.841465,-31.341465,0.115234,-0.285645,0.955078
1762435491663738,-13.170732,33.658539,-31.768293,0.108398,-0.290527,0.947754
1762435491673715,-9.878049,23.353659,-30.914635,0.102051,-0.294922,0.940918
1762435491683692,-8.902439,13.719513,-27.926830,0.096191,-0.300293,0.935059
1762435491693669,-6.341464,4.146341,-22.195122,0.090332,-0.305664,0.930176
1762435491703646,-6.524390,-2.317073,-18.353659,0.086914,-0.309570,0.927734
1762435491713622,-7.134147,-3.963415,-14.573171,0.083008,-0.314453,0.925781
1762435491723599,-4.329268,-7.012195,-10.853659,0.080078,-0.318848,0.925293
1762435491733576,-3.841464,-10.060976,-8.109756,0.077637,-0.321777,0.925781
1762435491743553,-4.573171,-13.719513,-5.731708,0.075684,-0.325684,0.925293
1762435491753530,-2.560976,-16.524391,-3.658537,0.074219,-0.330566,0.924805
1762435491763507,3.841464,-17.012196,-1.524390,0.073730,-0.332520,0.925781
1762435491773484,4.329268,-14.939025,-1.768293,0.073242,-0.333496,0.927246
1762435491783461,3.597561,-14.756098,-1.707317,0.073730,-0.333984,0.929199
1762435491793437,2.439024,-14.939025,-0.487805,0.074219,-0.334473,0.931152
1762435491803416,-0.426829,-14.207317,0.792683,0.075195,-0.333984,0.933594
1762435491813391,-2.439024,-13.963415,1.646342,0.077148,-0.333984,0.936523
1762435491823368,-2.804878,-14.085366,2.682927,0.078613,-0.333008,0.939941
1762435491833345,-4.329268,-14.024390,3.048780,0.080566,-0.331543,0.942871
1762435491843322,-6.646342,-13.902439,3.414634,0.082520,-0.330566,0.944824
1762435491853299,-8.109756,-14.268293,3.536585,0.083496,-0.330566,0.945312
1762435491863275,-8.170732,-15.426829,3.841464,0.083984,-0.331543,0.944336
1762435491873252,-6.768293,-16.402439,5.182927,0.084961,-0.333008,0.942871
1762435491883229,-6.402439,-16.524391,6.341464,0.085449,-0.334473,0.940918
1762435491893206,-5.426829,-16.646341,7.012195,0.085938,-0.336914,0.939453
1762435491903183,-0.731707,-15.792684,7.439024,0.087891,-0.338867,0.939453
1762435491913159,4.878049,-12.195122,6.341464,0.090820,-0.340332,0.941895
1762435491923136,10.121951,-5.975610,3.109756,0.094727,-0.337891,0.946777
1762435491933113,1.646342,-2.743902,0.731707,0.095703,-0.333496,0.947754
1762435491943090,-2.256098,-5.731708,1.280488,0.095703,-0.334473,0.946289
1762435491953069,-0.060976,-6.036585,2.926829,0.096680,-0.335449,0.945801
1762435491963044,-0.243902,-4.329268,2.621951,0.097168,-0.335449,0.944336
1762435491973020,-0.426829,-3.414634,1.341463,0.097656,-0.336426,0.943848
1762435491982997,0.426829,-3.048780,1.036585,0.098633,-0.337891,0.943359
1762435491992975,1.707317,-3.231707,1.646342,0.099121,-0.339844,0.942871
1762435492002951,1.768293,-3.475610,2.439024,0.099609,-0.339844,0.942383
1762435492012928,1.219512,-3.719512,2.743902,0.100586,-0.339844,0.941895
1762435492022904,0.670732,-4.207317,3.475610,0.101074,-0.339355,0.941895
1762435492032881,0.670732,-4.512195,3.536585,0.101562,-0.338867,0.941895
1762435492042858,1.158537,-3.841464,3.231707,0.102539,-0.338379,0.942383
1762435492052835,1.890244,-3.231707,2.926829,0.103027,-0.337402,0.941895
1762435492062812,1.768293,-2.987805,2.560976,0.103516,-0.336914,0.941895
1762435492072789,1.158537,-2.682927,2.134146,0.104004,-0.336426,0.941895
1762435492082766,0.975610,-2.743902,2.012195,0.104004,-0.336426,0.941406
1762435492092742,1.341463,-2.500000,1.890244,0.104492,-0.337402,0.941406
1762435492102720,2.195122,-2.256098,1.829268,0.104980,-0.338379,0.940918
1762435492112697,3.231707,-2.134146,1.829268,0.104980,-0.338867,0.940918
1762435492122673,2.987805,-1.402439,1.463415,0.105469,-0.338867,0.940430
1762435492132650,1.707317,-1.341463,2.195122,0.105957,-0.337891,0.940430
1762435492142627,0.182927,-1.097561,3.170732,0.106445,-0.337402,0.940430
1762435492152604,-1.341463,-0.792683,3.536585,0.106934,-0.336426,0.940430
1762435492162580,-2.134146,-0.487805,4.024390,0.106934,-0.335938,0.940430
1762435492172557,-1.768293,-0.365854,4.329268,0.106934,-0.335449,0.940430
1762435492182534,-1.768293,-0.060976,4.512195,0.106934,-0.334473,0.940430
1762435492192511,-3.353659,0.792683,4.512195,0.107422,-0.333984,0.940430
1762435492202488,-4.268293,1.646342,3.780488,0.106934,-0.333984,0.939941
1762435492212464,-3.231707,2.012195,3.414634,0.106934,-0.336426,0.939941
1762435492222441,-0.670732,1.646342,3.780488,0.106445,-0.338379,0.939941
1762435492232419,0.792683,1.036585,4.329268,0.106445,-0.339355,0.939941
1762435492242395,0.914634,0.670732,4.695122,0.105957,-0.339844,0.939941
1762435492252372,0.060976,0.243902,5.426829,0.106445,-0.338867,0.940430
1762435492262351,-1.463415,-0.060976,5.548780,0.106934,-0.338379,0.940430
1762435492272326,-2.926829,0.121951,4.939024,0.106934,-0.337891,0.940918
1762435492282303,-4.085366,0.853659,3.841464,0.106934,-0.337402,0.940430
1762435492292280,-3.353659,1.097561,3.048780,0.106934,-0.338379,0.940430
1762435492302258,-1.219512,1.158537,2.926829,0.106934,-0.339355,0.939941
1762435492312233,-0.792683,0.914634,2.195122,0.106934,-0.339844,0.939941
1762435492322210,-0.853659,0.121951,1.707317,0.106445,-0.341309,0.939941
1762435492332187,-0.853659,-0.548781,1.707317,0.105469,-0.342285,0.939941
1762435492342163,-0.853659,-0.975610,2.073171,0.104492,-0.342773,0.939941
1762435492352140,-1.219512,-1.341463,2.560976,0.103516,-0.343262,0.939941
1762435492362118,0.914634,-1.341463,3.292683,0.103027,-0.343750,0.940430
1762435492372094,5.792683,-0.060976,2.743902,0.101562,-0.344727,0.937988
1762435492382071,10.182927,1.158537,2.439024,0.101562,-0.345703,0.938477
1762435492392048,9.207317,0.182927,1.707317,0.102539,-0.341797,0.940918
1762435492402024,-1.219512,-2.682927,1.097561,0.103516,-0.336426,0.943848
1762435492412001,-9.573171,-2.987805,0.548781,0.103027,-0.336426,0.942871
1762435492421979,-7.560976,-3.048780,1.036585,0.102539,-0.338379,0.941406
1762435492431955,-2.743902,-1.768293,1.341463,0.102051,-0.339355,0.939941
1762435492441932,-0.304878,-0.792683,0.548781,0.102051,-0.340820,0.939453
1762435492451909,2.560976,-0.731707,0.731707,0.102051,-0.342773,0.939453
1762435492461886,4.695122,-1.219512,1.585366,0.102051,-0.343750,0.938965
1762435492471863,4.512195,-1.707317,2.621951,0.102051,-0.343262,0.939453
1762435492481839,3.231707,-2.134146,3.353659,0.101562,-0.341797,0.939941
1762435492491816,-2.682927,-2.012195,3.048780,0.101562,-0.338379,0.940918
1762435492501793,-8.231708,-2.195122,1.585366,0.101562,-0.337891,0.941895
1762435492511770,-9.024390,-2.073171,0.914634,0.101562,-0.338379,0.941406
1762435492521747,-5.731708,-1.951220,0.609756,0.101074,-0.339844,0.940918
1762435492531723,-2.195122,-1.402439,-0.121951,0.100586,-0.341309,0.939941
1762435492541700,0.182927,-0.792683,-0.365854,0.100586,-0.341797,0.939941
1762435492551677,0.426829,-0.243902,-0.060976,0.100098,-0.341309,0.939941
1762435492561654,-1.463415,0.000000,0.182927,0.100098,-0.340332,0.940430
1762435492571633,-3.292683,0.182927,0.548781,0.100586,-0.339844,0.940430
1762435492581608,-4.024390,0.060976,0.548781,0.100098,-0.339844,0.940430
1762435492591584,-3.231707,-0.121951,0.670732,0.099609,-0.339844,0.939941
1762435492601561,-3.780488,0.060976,1.036585,0.099121,-0.340332,0.939941
1762435492611540,-3.536585,0.243902,1.341463,0.099121,-0.340820,0.939453
1762435492621515,-2.987805,0.487805,1.280488,0.099121,-0.341797,0.939453
1762435492631492,-1.585366,0.792683,0.853659,0.099609,-0.342773,0.939941
1762435492641469,-0.914634,1.280488,0.000000,0.100098,-0.341797,0.939453
1762435492651445,-2.987805,0.975610,-0.609756,0.100586,-0.341797,0.939453
1762435492661422,-3.841464,1.097561,-0.304878,0.101074,-0.341797,0.939453
1762435492671400,-4.817073,0.731707,-0.182927,0.101074,-0.341797,0.939453
1762435492681376,-5.060976,-0.060976,-0.182927,0.101074,-0.342285,0.939453
1762435492691353,-4.878049,-0.914634,-0.060976,0.100586,-0.342773,0.939453
1762435492701330,-4.329268,-0.792683,-0.548781,0.099609,-0.343750,0.939453
1762435492711307,-2.987805,-0.853659,-0.792683,0.099121,-0.345703,0.938477
1762435492721284,-0.853659,-0.914634,-0.548781,0.098633,-0.347168,0.937988
1762435492731262,0.914634,-0.975610,-1.036585,0.098145,-0.348145,0.937988
1762435492741237,2.682927,-0.853659,-1.524390,0.098145,-0.348145,0.937988
1762435492751214,3.963415,-0.487805,-2.682927,0.098633,-0.347168,0.938477
1762435492761191,5.853659,0.853659,-5.426829,0.099121,-0.346191,0.938965
1762435492771169,9.939025,1.768293,-8.536586,0.099121,-0.344727,0.939453
1762435492781144,13.719513,3.109756,-11.036586,0.099121,-0.343262,0.939453
1762435492791121,16.646341,4.207317,-13.719513,0.099121,-0.342285,0.939941
1762435492801098,23.658537,7.317073,-18.536587,0.099121,-0.340820,0.940430
1762435492811076,27.926830,11.890244,-25.548780,0.099121,-0.333984,0.939941
1762435492821052,24.146341,15.060976,-30.487806,0.097656,-0.329102,0.939941
1762435492831029,20.670732,15.975610,-32.012196,0.096680,-0.325195,0.940430
1762435492841006,16.463415,15.487805,-32.743904,0.095703,-0.320801,0.941406
1762435492850982,10.304878,14.756098,-33.170731,0.095215,-0.319824,0.942383
1762435492860960,7.256098,15.000000,-32.926830,0.094727,-0.320312,0.942383
1762435492870936,10.792684,16.707317,-32.560978,0.092773,-0.321777,0.940918
1762435492880915,12.439025,17.256098,-31.402439,0.092285,-0.323730,0.939941
1762435492890890,9.024390,18.475611,-27.743902,0.095215,-0.317383,0.940918
1762435492900873,-32.073170,11.890244,-2.073171,0.085938,-0.351074,0.937012
1762435492910843,16.219513,-5.243903,18.597561,0.086914,-0.339844,0.935059
1762435492920820,11.158537,0.731707,6.402439,0.088867,-0.333984,0.938477
1762435492930797,25.792683,12.743903,-10.365854,0.091797,-0.329102,0.942871
1762435492940774,18.231709,17.743902,-17.317074,0.089844,-0.331543,0.940430
1762435492950751,23.536587,13.719513,-11.158537,0.088379,-0.335449,0.941895
1762435492960728,22.073172,10.670732,-7.195122,0.087891,-0.333496,0.943848
1762435492970704,14.512196,7.926829,-6.402439,0.086914,-0.330566,0.946289
1762435492980681,8.902439,5.731708,-5.365854,0.085449,-0.328125,0.947266
1762435492990658,8.170732,4.390244,-4.207317,0.083984,-0.325684,0.947754
1762435493000635,8.231708,5.731708,-4.573171,0.083008,-0.321289,0.948242
1762435493010612,9.634147,6.951220,-5.853659,0.081543,-0.317383,0.949219
1762435493020589,9.878049,6.463415,-4.634147,0.080566,-0.312500,0.950684
1762435493030566,6.890244,6.524390,-4.695122,0.079590,-0.306641,0.952148
1762435493040544,4.756098,6.585366,-6.585366,0.078613,-0.302246,0.954102
1762435493050519,5.304878,6.646342,-8.719512,0.077637,-0.299805,0.954590
1762435493060496,8.109756,7.317073,-10.243902,0.076172,-0.298340,0.954590
1762435493070474,10.914635,8.353659,-12.134147,0.075195,-0.296387,0.954590
1762435493080450,11.707317,9.451220,-13.658537,0.074219,-0.295898,0.954590
1762435493090427,10.548780,9.268293,-12.987805,0.073242,-0.296875,0.955078
1762435493100404,9.512196,8.231708,-10.731708,0.072754,-0.298828,0.954590
1762435493110380,7.865854,6.341464,-7.195122,0.072754,-0.300293,0.955078
1762435493120357,6.463415,3.841464,-2.865854,0.071777,-0.300293,0.956055
1762435493130334,5.060976,0.853659,0.000000,0.071289,-0.297363,0.957520
1762435493140311,2.804878,-0.792683,0.243902,0.070312,-0.293945,0.958984
1762435493150288,0.670732,-1.158537,0.060976,0.068359,-0.290527,0.959473
1762435493160264,0.487805,-1.585366,0.548781,0.066406,-0.288086,0.959961
1762435493170241,0.853659,-1.341463,-0.304878,0.064941,-0.286621,0.960449
1762435493180218,4.268293,-1.036585,-1.585366,0.063965,-0.286133,0.960449
1762435493190197,8.414635,-0.060976,-3.048780,0.063477,-0.286621,0.959473
1762435493200172,12.378049,1.585366,-3.841464,0.062988,-0.286133,0.958984
1762435493210149,12.987805,2.987805,-3.841464,0.062500,-0.285156,0.958496
1762435493220126,11.707317,2.865854,-2.012195,0.062500,-0.283691,0.958984
1762435493230102,7.743903,1.341463,0.426829,0.062988,-0.280273,0.959961
1762435493240079,-6.402439,-1.768293,3.170732,0.061523,-0.272461,0.956055
1762435493250056,-37.439026,-15.914635,19.573172,0.054199,-0.290527,0.949219
1762435493260033,-4.695122,-25.670732,36.585365,0.056641,-0.287598,0.951172
1762435493270010,-12.073171,-21.646341,30.548780,0.057129,-0.284668,0.951660
1762435493279987,-1.219512,-15.426829,21.585367,0.060059,-0.281738,0.957031
1762435493289963,11.219513,-9.268293,12.621951,0.062012,-0.279297,0.962402
1762435493299940,11.402439,-2.134146,3.170732,0.062988,-0.272461,0.964355
1762435493309917,11.768293,-0.243902,0.365854,0.062988,-0.270508,0.966309
1762435493319894,9.085366,0.609756,0.060976,0.062500,-0.268555,0.966309
1762435493329871,7.926829,0.304878,-0.182927,0.062500,-0.268066,0.966309
1762435493339848,7.926829,0.060976,1.036585,0.062500,-0.267090,0.965820
1762435493349826,5.365854,-0.426829,1.524390,0.062500,-0.264160,0.965820
1762435493359801,-24.146341,-3.231707,4.878049,0.060059,-0.266113,0.960449
1762435493369778,-7.439024,-15.060976,18.536587,0.060059,-0.274902,0.960938
1762435493379756,-5.182927,-13.048780,16.158537,0.062012,-0.271484,0.961914
1762435493389733,6.585366,-8.231708,8.963415,0.065430,-0.270020,0.965332
1762435493399709,6.341464,-3.170732,3.719512,0.065918,-0.266602,0.966797
1762435493409686,3.963415,-2.378049,1.097561,0.066406,-0.262207,0.968262
1762435493419662,-1.097561,-2.865854,1.463415,0.065430,-0.260742,0.968750
1762435493429639,-3.902439,-3.353659,2.073171,0.065430,-0.258789,0.968750
1762435493439616,-5.000000,-3.048780,1.341463,0.065430,-0.258301,0.968750
1762435493449593,-5.121951,-2.621951,0.975610,0.065430,-0.259277,0.968262
1762435493459570,-4.146341,-2.378049,1.219512,0.065430,-0.260742,0.967773
1762435493469547,-2.317073,-1.951220,0.609756,0.065918,-0.262695,0.966797
1762435493479524,-0.548781,-1.402439,0.182927,0.066895,-0.264160,0.966309
1762435493489501,1.158537,-1.036585,0.182927,0.066895,-0.264160,0.965820
1762435493499480,2.134146,-0.670732,-0.243902,0.066895,-0.264160,0.965332
1762435493509455,1.890244,-0.548781,0.000000,0.066895,-0.263672,0.965332
1762435493519431,1.341463,-0.548781,0.609756,0.066895,-0.262695,0.965820
1762435493529408,-0.060976,-0.853659,0.426829,0.066895,-0.261719,0.966309
1762435493539385,-1.158537,-0.975610,0.121951,0.066895,-0.261719,0.966309
1762435493549362,-1.158537,-1.036585,0.182927,0.066895,-0.262207,0.966309
1762435493559338,-0.548781,-1.219512,0.121951,0.066895,-0.262695,0.966309
1762435493569315,0.060976,-1.280488,0.121951,0.066895,-0.263184,0.966309
1762435493579292,0.426829,-1.219512,0.182927,0.066895,-0.263184,0.966309
1762435493589269,0.731707,-1.524390,0.304878,0.066895,-0.262695,0.966309
1762435493599246,-0.243902,-1.463415,0.304878,0.066895,-0.261719,0.966309
1762435493609223,-2.073171,-1.036585,0.243902,0.067383,-0.260742,0.966797
1762435493619199,-3.292683,-0.792683,-0.121951,0.066895,-0.260742,0.966309
1762435493629176,-3.658537,-0.426829,-0.243902,0.067383,-0.261230,0.966309
1762435493639154,-4.207317,0.243902,-0.792683,0.067871,-0.260742,0.965820
1762435493649130,-5.609756,1.463415,-2.134146,0.067871,-0.261230,0.966309
1762435493659109,-5.975610,2.256098,-2.926829,0.067871,-0.261719,0.965820
1762435493669084,-6.463415,2.987805,-3.292683,0.067871,-0.261719,0.965820
1762435493679061,-7.134147,2.987805,-3.658537,0.067871,-0.261719,0.965820
1762435493689037,-7.378049,2.439024,-3.109756,0.067383,-0.261719,0.965820
1762435493699015,-10.365854,2.804878,-2.987805,0.067871,-0.259277,0.966797
1762435493708991,-17.317074,5.304878,-4.573171,0.068359,-0.255859,0.967773
1762435493718968,-27.195122,9.024390,-7.195122,0.069336,-0.253418,0.968750
1762435493728945,-38.170734,13.658537,-10.853659,0.070312,-0.249512,0.968750
1762435493738922,-52.378052,20.487804,-16.646341,0.072266,-0.246582,0.969727
1762435493748898,-69.268295,31.402439,-23.902439,0.075195,-0.241699,0.972656
1762435493758875,-82.987808,47.195122,-26.097561,0.077637,-0.250488,0.979492
1762435493768852,-19.390244,67.317078,-26.707317,0.083984,-0.270508,0.997559
1762435493778829,8.170732,94.451225,-40.426830,0.085938,-0.266113,1.004883
1762435493788806,1.219512,101.158539,-45.487804,0.080078,-0.270020,1.000488
1762435493798783,-6.585366,89.939026,-40.487804,0.069824,-0.272461,0.988281
1762435493808759,-24.451220,73.963417,-33.597561,0.059570,-0.271484,0.973633
1762435493818737,-46.341465,63.780491,-31.280489,0.052246,-0.273438,0.964355
1762435493828713,-45.304878,53.902439,-34.512196,0.045410,-0.279297,0.958984
1762435493838690,-38.414635,45.914635,-42.439026,0.039551,-0.280762,0.953613
1762435493848667,-39.146343,38.963417,-51.280491,0.032715,-0.284668,0.948242
1762435493858644,-32.682926,29.695122,-55.243904,0.024902,-0.291016,0.943359
1762435493868621,-31.829269,20.670732,-54.146343,0.018066,-0.295898,0.938965
1762435493878597,-37.195122,14.207317,-49.390244,0.011230,-0.302246,0.934570
1762435493888574,-40.670734,5.609756,-44.878052,0.005371,-0.308105,0.930176
1762435493898551,-39.207317,-5.121951,-43.048782,0.000000,-0.316406,0.926758
1762435493908528,-30.731709,-16.036585,-40.731709,-0.004395,-0.325684,0.923340
1762435493918505,-25.182928,-23.719513,-36.768295,-0.007324,-0.334473,0.920410
1762435493928482,-23.536587,-27.378050,-30.182928,-0.008789,-0.343262,0.918457
1762435493938458,-21.829269,-26.768293,-21.829269,-0.009766,-0.353027,0.917969
1762435493948435,-15.609756,-25.609756,-14.329268,-0.009766,-0.362305,0.918945
1762435493958412,-8.109756,-25.182928,-8.841464,-0.010254,-0.368164,0.919434
1762435493968391,-7.926829,-25.670732,-5.548780,-0.010254,-0.371094,0.919922
1762435493978366,-6.646342,-27.073172,-4.268293,-0.009766,-0.374512,0.919922
1762435493988343,-2.804878,-28.475611,-3.475610,-0.009277,-0.377930,0.919434
1762435493998320,0.426829,-29.878050,-1.646342,-0.008301,-0.381348,0.918945
1762435494008298,1.524390,-31.097561,1.585366,-0.007324,-0.384766,0.918457
1762435494018274,5.609756,-31.097561,5.853659,-0.004883,-0.391602,0.920410
1762435494028250,24.817074,-18.780489,12.256098,0.002441,-0.398926,0.931641
1762435494038227,28.597561,-10.792684,13.170732,0.002441,-0.396484,0.929199
1762435494048204,26.280489,-13.780488,12.012196,0.004395,-0.396484,0.929688
1762435494058181,25.548780,-11.890244,14.207317,0.006348,-0.394531,0.929688
1762435494068158,8.048780,-11.280488,14.939025,0.006348,-0.389648,0.926270
1762435494078134,5.609756,-13.780488,18.109756,0.007812,-0.393555,0.928223
1762435494088111,8.780488,-11.951220,18.048780,0.009766,-0.390625,0.928711
1762435494098088,12.073171,-9.756098,14.268293,0.012207,-0.388184,0.931152
1762435494108066,14.756098,-7.012195,11.036586,0.014160,-0.387695,0.932617
1762435494118042,16.951220,-5.121951,9.207317,0.015625,-0.385742,0.933594
1762435494128020,15.243903,-4.207317,8.414635,0.016602,-0.385742,0.933105
1762435494137995,15.731708,-4.146341,8.597561,0.018066,-0.385742,0.932617
1762435494147972,14.573171,-4.268293,9.573171,0.019043,-0.386230,0.932129
1762435494157949,14.817074,-4.817073,10.914635,0.020508,-0.386719,0.932129
1762435494167926,14.329268,-5.792683,12.073171,0.020996,-0.385254,0.931641
1762435494177903,10.975610,-7.073171,11.768293,0.021973,-0.381348,0.931641
1762435494187880,3.658537,-7.926829,9.634147,0.022461,-0.376465,0.933105
1762435494197857,-3.048780,-7.804878,8.353659,0.022461,-0.374023,0.934570
1762435494207833,-4.451220,-8.780488,8.902439,0.022461,-0.373535,0.935059
1762435494217811,-4.024390,-9.390244,9.512196,0.023438,-0.372070,0.935547
1762435494227787,-5.365854,-7.926829,8.475610,0.024414,-0.372070,0.935059
1762435494237764,-4.451220,-7.439024,7.621952,0.025391,-0.373047,0.935059
1762435494247741,-2.073171,-7.560976,8.109756,0.026367,-0.374512,0.934082
1762435494257718,0.548781,-7.317073,8.597561,0.027344,-0.376465,0.933594
1762435494267695,4.268293,-8.170732,9.207317,0.028320,-0.377441,0.933594
1762435494277673,6.280488,-8.780488,10.182927,0.029785,-0.377441,0.933594
1762435494287648,4.451220,-8.353659,10.853659,0.030762,-0.375488,0.934082
1762435494297625,1.463415,-7.134147,11.768293,0.031250,-0.374512,0.933594
1762435494307602,4.939024,-6.158537,12.378049,0.031738,-0.375000,0.933594
1762435494317580,7.926829,-5.487805,11.219513,0.032715,-0.374023,0.935059
1762435494327556,9.634147,-6.524390,10.060976,0.032715,-0.373047,0.935547
1762435494337533,10.548780,-7.743903,9.878049,0.032715,-0.373047,0.935547
1762435494347509,12.987805,-8.597561,10.914635,0.032715,-0.373047,0.935547
1762435494357486,15.670732,-9.390244,12.256098,0.032715,-0.372070,0.936035
1762435494367463,17.865854,-10.487805,13.597561,0.032715,-0.371094,0.937012
1762435494377440,16.707317,-10.914635,14.268293,0.033691,-0.366211,0.938477
1762435494387417,9.146341,-8.780488,11.524390,0.035156,-0.359863,0.939941
1762435494397394,1.097561,-5.792683,7.256098,0.035645,-0.356445,0.939941
1762435494407371,1.036585,-5.000000,5.609756,0.036133,-0.356445,0.939941
1762435494417347,1.341463,-3.963415,5.609756,0.036621,-0.354492,0.939941
1762435494427327,-3.414634,-1.707317,6.402439,0.036621,-0.354004,0.939453
1762435494437302,-1.463415,-1.219512,7.865854,0.038086,-0.354980,0.940430
1762435494447278,-1.463415,-0.914634,6.341464,0.038574,-0.356445,0.939453
1762435494457255,2.195122,-2.073171,5.487805,0.039062,-0.355957,0.939453
1762435494467232,0.914634,-2.560976,4.939024,0.039551,-0.355469,0.940430
1762435494477209,-0.243902,-3.353659,4.878049,0.039551,-0.353027,0.940918
1762435494487185,-3.658537,-3.841464,4.939024,0.039551,-0.351074,0.941406
1762435494497162,-6.646342,-4.512195,5.548780,0.039551,-0.350586,0.941895
1762435494507139,-6.890244,-5.670732,6.524390,0.039551,-0.350586,0.942383
1762435494517116,-5.609756,-5.914634,6.341464,0.039551,-0.351562,0.941895
1762435494527093,-1.768293,-5.304878,6.219512,0.039551,-0.353027,0.940430
1762435494537070,0.426829,-4.268293,5.975610,0.039551,-0.354004,0.939941
1762435494547047,-0.182927,-2.865854,6.280488,0.040039,-0.354004,0.939941
1762435494557024,-1.768293,-1.768293,7.926829,0.040527,-0.355469,0.939941
1762435494567000,-4.939024,-2.987805,9.756098,0.041992,-0.356934,0.941406
1762435494576977,-7.987805,-7.926829,11.707317,0.042480,-0.358887,0.943848
1762435494586956,-13.414635,-16.280489,14.756098,0.043457,-0.358398,0.945312
1762435494596931,-23.170732,-22.439026,17.012196,0.044434,-0.354980,0.946777
1762435494606908,-32.560978,-24.024391,18.170732,0.045410,-0.354980,0.946777
1762435494616885,-32.195122,-23.902439,18.719513,0.046875,-0.358398,0.944824
1762435494626862,-24.146341,-20.182928,17.439024,0.049316,-0.362305,0.942383
1762435494636838,-14.573171,-16.524391,11.036586,0.051270,-0.364746,0.939941
1762435494646815,-6.402439,-14.939025,4.573171,0.053223,-0.364746,0.941406
1762435494656792,-6.951220,-11.097561,0.548781,0.057129,-0.360840,0.947754
1762435494666769,-17.073172,-1.036585,-2.560976,0.062988,-0.353516,0.958984
1762435494676746,-31.951220,15.975610,-8.231708,0.071289,-0.345703,0.974609
1762435494686723,-37.378048,43.414635,-16.036585,0.084961,-0.345703,1.000488
1762435494696699,-22.378050,73.475609,-24.329269,0.090332,-0.339844,1.013672
1762435494706676,-13.719513,103.780487,-31.097561,0.090332,-0.341797,1.017578
1762435494716653,7.621952,110.975609,-34.817074,0.084473,-0.341797,1.008301
1762435494726630,0.731707,101.646347,-37.987804,0.073730,-0.339355,0.989258
1762435494736609,-16.402439,80.243904,-37.621952,0.061035,-0.342773,0.967285
1762435494746584,-34.939026,56.890244,-30.487806,0.048340,-0.349121,0.944824
1762435494756561,-43.658539,43.292683,-12.987805,0.037598,-0.374023,0.929688
1762435494766537,-15.121952,30.548780,0.182927,0.029297,-0.384277,0.914551
1762435494776514,-4.329268,23.841463,-2.195122,0.019531,-0.387207,0.898926
1762435494786491,-0.731707,14.024390,-5.975610,0.009277,-0.390625,0.885742
1762435494796468,0.000000,4.878049,-3.963415,0.000488,-0.394531,0.877930
1762435494806445,2.012195,-0.060976,-1.463415,-0.006348,-0.398438,0.875000
1762435494816422,8.902439,-7.134147,-1.890244,-0.012695,-0.399902,0.873047
1762435494826399,13.902439,-14.573171,-3.048780,-0.018066,-0.398438,0.873535
1762435494836375,15.731708,-18.353659,-5.060976,-0.020996,-0.395508,0.875977
1762435494846352,9.085366,-20.121952,-4.390244,-0.023926,-0.395508,0.878906
1762435494856330,13.353659,-23.414635,-2.500000,-0.025879,-0.394531,0.880859
1762435494866306,15.548780,-24.695122,-4.024390,-0.026367,-0.393555,0.882324
1762435494876283,19.329269,-25.731709,-7.134147,-0.025879,-0.395020,0.883301
1762435494886260,23.597561,-27.195122,-8.658537,-0.024902,-0.398438,0.883301
1762435494896238,23.231709,-31.341465,-6.158537,-0.023438,-0.403809,0.882812
1762435494906213,19.634148,-36.829269,0.670732,-0.020020,-0.407227,0.884766
1762435494916190,6.768293,-36.646343,6.036585,-0.014648,-0.408691,0.890137
1762435494926167,-3.292683,-35.487804,10.853659,-0.009277,-0.410156,0.895996
1762435494936145,-8.536586,-36.097561,15.426829,-0.004883,-0.410645,0.902832
1762435494946121,-7.012195,-36.585365,18.780489,-0.000977,-0.410645,0.909668
1762435494956098,0.304878,-34.573170,18.902439,0.002441,-0.408691,0.916016
1762435494966075,10.487805,-28.231709,15.731708,0.008789,-0.408691,0.928223
1762435494976052,11.402439,-17.500000,13.780488,0.013672,-0.397949,0.940430
1762435494986028,-1.707317,-14.878049,12.682927,0.013672,-0.394043,0.938965
1762435494996006,-1.768293,-17.865854,12.378049,0.013184,-0.395996,0.933105
1762435495005982,5.792683,-18.353659,13.902439,0.014160,-0.400391,0.928711
1762435495015959,16.280489,-17.073172,16.585365,0.015625,-0.407715,0.926758
1762435495025936,26.768293,-17.317074,20.365854,0.018066,-0.414551,0.925781
1762435495035914,34.390244,-18.902439,25.304878,0.020020,-0.420898,0.925293
1762435495045892,40.243904,-24.146341,34.695122,0.021973,-0.423340,0.925781
1762435495055867,37.378048,-31.219513,44.756100,0.023926,-0.417969,0.927734
1762435495065843,25.000000,-34.268295,47.987804,0.026855,-0.409668,0.930664
1762435495075820,13.414635,-35.000000,46.707317,0.028809,-0.402344,0.932129
1762435495085797,8.841464,-33.231709,44.085365,0.030273,-0.396484,0.933105
1762435495095774,10.365854,-28.902439,39.878048,0.031738,-0.391602,0.933105
1762435495105752,15.365854,-23.536587,35.121952,0.032715,-0.386719,0.933594
1762435495115728,20.182928,-18.658537,28.841465,0.034668,-0.381836,0.933594
1762435495125705,18.231709,-14.634147,21.829269,0.036133,-0.375000,0.934082
1762435495135681,8.292683,-16.097561,18.536587,0.039062,-0.368164,0.940918
1762435495145659,-6.768293,-22.500000,18.902439,0.041992,-0.358398,0.944824
1762435495155635,-26.341465,-25.792683,17.195122,0.044922,-0.353027,0.945801
1762435495165612,-35.365856,-25.548780,16.890244,0.046387,-0.354980,0.943848
1762435495175589,-29.451220,-26.646341,19.512196,0.047363,-0.358887,0.942383
1762435495185566,-23.292683,-26.951220,20.975611,0.049316,-0.360352,0.940918
1762435495195543,-20.182928,-24.878050,20.243902,0.051758,-0.361816,0.938965
1762435495205521,-15.243903,-22.073172,19.817074,0.053223,-0.363281,0.937500
1762435495215497,-9.390244,-19.268293,19.268293,0.055176,-0.363281,0.936035
1762435495225473,-5.548780,-15.975610,17.804878,0.056641,-0.362305,0.935547
1762435495235450,-2.621951,-12.439025,14.878049,0.058594,-0.360352,0.935547
1762435495245427,0.060976,-9.390244,12.073171,0.059570,-0.359375,0.936035
1762435495255404,2.195122,-7.134147,10.365854,0.061035,-0.357910,0.936523
1762435495265381,3.170732,-5.853659,8.658537,0.062500,-0.356934,0.936523
1762435495275358,3.536585,-4.329268,7.865854,0.063477,-0.355957,0.936523
1762435495285334,5.792683,-3.414634,6.890244,0.064941,-0.357422,0.936523
1762435495295311,10.365854,-3.780488,6.646342,0.066895,-0.359375,0.936035
1762435495305288,14.207317,-4.024390,6.707317,0.068359,-0.361328,0.935547
1762435495315265,15.914635,-3.536585,6.402439,0.069824,-0.362305,0.935059
1762435495325242,16.036585,-2.865854,5.487805,0.071289,-0.363281,0.934570
1762435495335219,15.426829,-2.743902,4.817073,0.072266,-0.362793,0.934570
1762435495345196,12.256098,-2.621951,4.207317,0.073242,-0.361328,0.935059
1762435495355174,8.048780,-2.743902,3.902439,0.073730,-0.359375,0.935547
1762435495365150,5.243903,-2.439024,3.902439,0.074219,-0.358398,0.935547
1762435495375126,5.182927,-1.585366,4.024390,0.074707,-0.357422,0.935547
1762435495385103,7.012195,-0.609756,3.780488,0.075195,-0.357422,0.935547
1762435495395081,8.780488,0.182927,3.780488,0.076172,-0.357422,0.935547
1762435495405057,10.792684,0.365854,5.060976,0.076172,-0.358398,0.935547
1762435495415034,12.500000,0.487805,6.036585,0.076660,-0.358887,0.935547
1762435495425011,13.475610,0.548781,6.280488,0.077148,-0.357910,0.935547
1762435495434988,14.268293,0.182927,6.036585,0.077148,-0.357422,0.936523
1762435495444964,14.939025,-1.036585,5.975610,0.077637,-0.356934,0.937500
1762435495454941,13.841464,-1.646342,6.219512,0.077637,-0.354492,0.937988
1762435495464918,13.536586,-1.768293,6.341464,0.077148,-0.354004,0.937988
1762435495474895,20.182928,-3.780488,9.146341,0.076172,-0.358887,0.937988
1762435495484872,43.170734,-9.451220,17.560976,0.074707,-0.367676,0.937012
1762435495494849,59.329269,-15.853659,24.146341,0.075195,-0.366211,0.939941
1762435495504826,58.170734,-18.231709,24.878050,0.076660,-0.363281,0.944824
1762435495514803,52.804878,-23.170732,26.158537,0.076172,-0.358398,0.946777
1762435495524779,48.414635,-25.731709,25.670732,0.076660,-0.351074,0.947754
1762435495534756,40.792683,-29.390245,20.365854,0.078125,-0.341309,0.948242
1762435495544733,37.865856,-14.756098,21.158537,0.077637,-0.338867,0.948730
1762435495554710,37.439026,-13.353659,21.341463,0.079590,-0.332031,0.947754
1762435495564687,29.207317,-7.317073,15.853659,0.083496,-0.320801,0.948242
1762435495574664,15.182927,1.707317,8.902439,0.088379,-0.309082,0.949219
1762435495584641,-0.487805,11.890244,1.097561,0.091797,-0.297363,0.949707
1762435495594618,-10.914635,16.890244,-3.597561,0.093750,-0.291992,0.951172
1762435495604594,-14.024390,22.256098,-4.207317,0.097168,-0.291992,0.955566
1762435495614571,-9.817074,27.073172,-3.841464,0.090820,-0.290527,0.946289
1762435495624548,-9.756098,19.024391,-6.341464,0.090332,-0.292480,0.945801
1762435495634525,-5.548780,22.804878,-5.548780,0.088867,-0.293945,0.946289
1762435495644502,-4.146341,16.890244,-4.512195,0.086426,-0.292480,0.945801
1762435495654479,-7.926829,12.012196,-4.695122,0.085449,-0.289551,0.949707
1762435495664458,-11.097561,9.756098,-5.426829,0.083984,-0.287109,0.951660
1762435495674433,-15.609756,8.658537,-7.865854,0.083008,-0.282715,0.955566
1762435495684409,-24.939026,5.914634,-9.146341,0.082520,-0.276367,0.959473
1762435495694387,-34.207317,6.707317,-12.500000,0.082031,-0.271973,0.960938
1762435495704364,-37.804878,10.487805,-17.378050,0.080566,-0.273438,0.960449
1762435495714340,-31.646341,15.182927,-18.902439,0.079102,-0.278809,0.959961
1762435495724317,-24.634148,20.975611,-16.280489,0.077148,-0.286133,0.957031
1762435495734294,-12.865854,23.597561,-9.085366,0.074219,-0.298340,0.955566
1762435495744271,52.560978,17.682928,-7.134147,0.077637,-0.300293,0.960938
1762435495754248,14.878049,26.707317,-18.170732,0.079590,-0.293457,0.972656
1762435495764225,-11.402439,14.878049,-9.939025,0.083008,-0.302246,0.984375
1762435495774201,-19.878050,12.926829,2.500000,0.088379,-0.313965,0.998047
1762435495784178,-10.792684,22.500000,10.182927,0.094238,-0.326172,1.011719
1762435495794155,4.878049,34.939026,10.975610,0.097656,-0.333984,1.020508
1762435495804132,15.365854,42.500000,7.378049,0.097656,-0.339844,1.021973
1762435495814112,22.560976,43.292683,5.182927,0.093262,-0.346191,1.017090
1762435495824086,24.024391,37.256100,5.304878,0.086914,-0.353516,1.008789
1762435495834063,21.646341,28.658537,6.646342,0.079590,-0.363281,0.999023
1762435495844040,20.304878,20.975611,10.487805,0.072754,-0.376465,0.990234
1762435495854016,15.000000,16.097561,18.231709,0.067871,-0.390137,0.983887
1762435495863993,4.085366,13.841464,31.097561,0.062500,-0.404297,0.978027
1762435495873970,-4.329268,12.195122,47.317074,0.056641,-0.420410,0.972168
1762435495883947,-4.634147,7.804878,63.780491,0.049805,-0.434570,0.964355
1762435495893924,-3.475610,1.463415,75.853661,0.041016,-0.444824,0.954590
1762435495903901,-2.256098,-6.951220,83.536591,0.031250,-0.452637,0.944336
1762435495913878,-0.304878,-16.219513,88.475609,0.020996,-0.459961,0.933105
1762435495923854,2.378049,-27.926830,93.109756,0.010742,-0.467773,0.922852
1762435495933831,3.414634,-41.463417,99.329269,0.001953,-0.477051,0.912598
1762435495943808,3.109756,-56.768295,108.414635,-0.006348,-0.488281,0.902832
1762435495953785,1.829268,-73.048782,120.121956,-0.012695,-0.500000,0.893066
1762435495963762,5.000000,-89.024391,131.036591,-0.016602,-0.510742,0.884277
1762435495973740,7.073171,-102.560982,139.512192,-0.017090,-0.517090,0.877441
1762435495983716,10.792684,-112.865860,145.426834,-0.014648,-0.523438,0.872559
1762435495993693,20.853659,-119.268295,149.634155,-0.010254,-0.528320,0.869141
1762435496003669,33.658539,-121.951225,153.170731,-0.003906,-0.531738,0.867188
1762435496013647,43.170734,-121.219513,161.585373,0.003906,-0.528320,0.866699
1762435496023623,42.804878,-118.231712,173.719513,0.013184,-0.520996,0.867676
1762435496033600,43.475613,-114.695122,185.182938,0.024414,-0.509766,0.870605
1762435496043577,42.256100,-110.670731,192.317078,0.037598,-0.494141,0.875488
1762435496053554,37.317074,-104.329269,193.231705,0.051758,-0.475586,0.882324
1762435496063531,30.121952,-94.878052,188.170731,0.066895,-0.453613,0.890625
1762435496073508,21.219513,-80.487808,178.353668,0.081543,-0.432129,0.898926
1762435496083485,12.317074,-65.060974,164.329269,0.094727,-0.412598,0.905273
1762435496093462,8.231708,-54.085365,151.646347,0.104492,-0.399414,0.908203
1762435496103438,10.121951,-48.963417,145.731705,0.110352,-0.390137,0.906738
1762435496113415,16.158537,-50.121952,146.402435,0.112305,-0.383301,0.898926
1762435496123394,24.634148,-56.402439,149.573181,0.112793,-0.375000,0.889160
1762435496133369,34.695122,-64.573174,149.329269,0.114258,-0.365723,0.878418
1762435496143346,44.146343,-70.670731,146.768295,0.116699,-0.353516,0.868652
1762435496153322,55.670734,-72.804878,139.573181,0.121582,-0.340820,0.863770
1762435496163301,73.170731,-65.853661,130.243912,0.130859,-0.328613,0.864746
1762435496173276,93.414635,-52.256100,121.402443,0.143066,-0.317383,0.869629
1762435496183253,108.719513,-36.158539,115.487808,0.157227,-0.305664,0.876953
1762435496193230,117.134148,-22.012196,114.573174,0.169922,-0.293457,0.882812
1762435496203207,119.146347,-13.902439,120.121956,0.181152,-0.278320,0.885254
1762435496213184,109.817078,-11.829268,127.500000,0.191406,-0.257812,0.888184
1762435496223161,93.048782,-7.987805,131.463425,0.202148,-0.236816,0.894043
1762435496233137,78.475609,-4.939024,129.695129,0.210449,-0.214355,0.897461
1762435496243114,62.195122,-6.463415,123.353661,0.215820,-0.190918,0.899414
1762435496253091,44.451221,-7.865854,115.609756,0.219727,-0.168945,0.900391
1762435496263068,32.134148,-8.292683,106.097565,0.223633,-0.151367,0.902344
1762435496273045,29.573172,-6.219512,96.890244,0.228516,-0.138672,0.903809
1762435496283023,37.317074,-3.841464,88.658539,0.232910,-0.130371,0.904297
1762435496292999,48.414635,-3.719512,83.292686,0.237305,-0.121582,0.905273
1762435496302976,53.597561,-5.426829,81.829269,0.242188,-0.108887,0.909180
1762435496312953,54.512196,-5.487805,76.341469,0.246582,-0.095215,0.916992
1762435496322930,57.012196,-4.329268,65.243904,0.249512,-0.079590,0.924805
1762435496332907,55.182930,-1.341463,54.085365,0.251953,-0.062988,0.933105
1762435496342883,47.926830,-1.097561,46.890244,0.253906,-0.047363,0.941406
1762435496352860,39.024391,-2.743902,42.073174,0.256348,-0.033691,0.949707
1762435496362837,26.097561,-5.609756,40.243904,0.259277,-0.020020,0.958984
1762435496372814,10.609756,-6.768293,39.939026,0.261719,-0.007812,0.968750
1762435496382791,-0.365854,-7.926829,37.926830,0.262695,0.003906,0.979492
1762435496392768,-6.036585,-5.000000,32.378048,0.262695,0.013184,0.989746
1762435496402745,-3.170732,0.609756,23.841463,0.260254,0.020996,0.997559
1762435496412721,2.439024,7.804878,14.756098,0.255371,0.030273,1.000488
1762435496422698,5.060976,12.682927,5.670732,0.249512,0.038574,0.999023
1762435496432677,8.963415,11.402439,-3.780488,0.241699,0.045898,0.993652
1762435496442652,7.073171,4.634147,-12.439025,0.233887,0.052734,0.986328
1762435496452629,2.804878,-3.902439,-18.292683,0.226074,0.057129,0.979004
1762435496462606,-1.524390,-11.463415,-20.670732,0.218750,0.059570,0.974609
1762435496472583,-3.963415,-18.597561,-21.097561,0.213867,0.062012,0.975098
1762435496482559,-13.658537,-18.231709,-21.280489,0.212402,0.064941,0.979492
1762435496492537,-20.609756,-8.658537,-23.170732,0.212402,0.063965,0.985840
1762435496502513,-19.512196,1.646342,-27.439026,0.211914,0.059570,0.989258
1762435496512490,-15.365854,7.804878,-31.341465,0.210449,0.054688,0.988770
1762435496522467,-13.780488,8.536586,-32.560978,0.208984,0.049316,0.982910
1762435496532444,-11.646341,3.231707,-33.658539,0.208496,0.041992,0.974121
1762435496542421,-6.524390,-8.597561,-35.853661,0.209961,0.034668,0.965820
1762435496552398,-3.414634,-23.475611,-38.902439,0.214355,0.026367,0.961914
1762435496562375,-3.109756,-36.707317,-42.195122,0.221191,0.018066,0.961914
1762435496572351,-3.292683,-48.109756,-44.634148,0.229980,0.009277,0.964844
1762435496582331,-6.768293,-54.390244,-45.121952,0.239258,0.000977,0.968750
1762435496592306,-11.097561,-56.646343,-43.170734,0.248535,-0.006836,0.971191
1762435496602282,-16.768293,-58.109756,-38.536587,0.256836,-0.013184,0.971191
1762435496612259,-25.426830,-62.439026,-33.658539,0.264648,-0.017578,0.969727
1762435496622237,-37.560978,-65.000000,-31.402439,0.276367,-0.023438,0.972656
1762435496632213,-34.634148,-35.853661,-25.487806,0.295898,-0.039062,0.995117
1762435496642190,-30.121952,-3.597561,-14.451220,0.308105,-0.053223,1.004883
1762435496652166,-19.451220,-6.707317,-13.536586,0.313965,-0.053223,1.001953
1762435496662143,-44.817074,-17.682928,-19.817074,0.317871,-0.054199,0.997070
1762435496672120,-49.268295,-19.268293,-16.951220,0.321289,-0.064453,0.995117
1762435496682097,-41.585365,-13.536586,-9.756098,0.322754,-0.075195,0.993652
1762435496692074,-32.500000,7.682927,0.731707,0.326660,-0.087891,0.999512
1762435496702051,-11.707317,57.500000,11.646341,0.332031,-0.102539,1.012695
1762435496712028,25.000000,110.121956,19.146341,0.332520,-0.115723,1.020508
1762435496722005,54.878052,134.878052,22.804878,0.323730,-0.118164,1.013672
1762435496731981,59.573174,133.048782,25.000000,0.305664,-0.113770,0.992676
1762435496741959,65.000000,128.780487,28.292683,0.274902,-0.116211,0.951660
1762435496751935,102.865852,115.000000,36.097561,0.232910,-0.130371,0.892090
1762435496761912,205.792694,53.963417,56.829269,0.179199,-0.166504,0.809570
1762435496771889,168.719513,-119.268295,73.902443,0.121582,-0.082520,0.690430
1762435496781866,-111.829269,-356.768311,66.463417,0.097656,-0.036621,0.604980
1762435496791843,92.804878,-181.097565,-4.024390,0.323242,-0.045410,0.989746
1762435496801819,-30.914635,128.170731,-7.073171,0.277344,-0.004883,0.933594
1762435496811796,-84.085365,19.024391,2.500000,0.298828,0.044922,0.972168
1762435496821773,-147.134155,-2.560976,3.719512,0.305176,0.055664,0.977539
1762435496831750,-180.914642,-37.621952,6.524390,0.308594,0.058105,0.980469
1762435496841727,-171.280487,-57.804878,-6.890244,0.325684,0.044922,1.006836
1762435496851704,-110.853661,-36.951221,-50.243904,0.354492,0.032715,1.056152
1762435496861681,-50.670734,69.573174,-94.573174,0.398438,0.017090,1.128906
1762435496871658,28.231709,108.475609,-100.487808,0.398438,0.009766,1.120605
1762435496881635,-30.914635,140.121948,-83.414635,0.400879,-0.018066,1.130371
1762435496891613,-26.524391,171.097565,-46.036587,0.396973,-0.031738,1.123047
1762435496901588,-19.329269,178.597565,-35.000000,0.379395,-0.025391,1.096191
1762435496911565,-9.207317,165.182938,-44.207317,0.355469,-0.013672,1.060059
1762435496921542,5.121951,144.329269,-60.243904,0.329590,-0.002930,1.025391
1762435496931520,21.036587,125.487808,-73.292686,0.305664,0.003418,0.997070
1762435496941496,36.341465,112.804878,-80.731712,0.283691,0.009277,0.975098
1762435496951473,52.500000,101.829269,-89.939026,0.262207,0.015137,0.957031
1762435496961450,71.524391,87.926834,-103.292686,0.242188,0.021484,0.939941
1762435496971426,80.975609,72.682930,-113.658539,0.221191,0.028320,0.921387
1762435496981403,79.451218,53.048782,-120.304878,0.199219,0.035156,0.898926
1762435496991380,79.085365,23.597561,-127.378052,0.176270,0.041504,0.872070
1762435497001357,71.890244,-15.853659,-132.439026,0.155762,0.054199,0.846191
1762435497011334,52.317074,-59.329269,-142.317078,0.141602,0.068848,0.828613
1762435497021312,34.451221,-97.743904,-161.463425,0.135742,0.079102,0.826660
1762435497031288,10.060976,-122.378052,-180.243912,0.138184,0.083984,0.842285
1762435497041267,-24.451220,-127.378052,-188.658539,0.146973,0.079590,0.867676
1762435497051242,-49.939026,-114.207321,-185.000000,0.159180,0.068359,0.898438
1762435497061218,-76.585365,-87.256096,-172.500000,0.174316,0.056641,0.930664
1762435497071195,-94.024391,-56.524391,-162.073181,0.188965,0.037109,0.959961
1762435497081173,-92.682930,-28.536587,-155.000000,0.201660,0.014160,0.982910
1762435497091149,-80.914635,-4.146341,-148.292694,0.209473,-0.012695,0.997070
1762435497101126,-61.219513,12.012196,-141.890244,0.210938,-0.042969,1.001465
1762435497111103,-39.756100,20.548780,-134.085373,0.208008,-0.072754,0.996094
1762435497121080,-23.231709,23.170732,-122.621956,0.199707,-0.099609,0.983887
1762435497131057,-17.073172,17.926830,-104.146347,0.188477,-0.119629,0.968262
1762435497141033,-21.097561,8.109756,-82.560974,0.176758,-0.133789,0.953613
1762435497151010,-27.621952,-3.170732,-66.585365,0.165039,-0.143555,0.940918
1762435497160987,-30.243904,-13.170732,-56.341465,0.153809,-0.147949,0.930176
1762435497170964,-36.768295,-17.378050,-52.256100,0.144531,-0.149902,0.921875
1762435497180941,-32.317074,-17.317074,-59.634148,0.136719,-0.159180,0.916016
1762435497190921,-14.695123,-16.707317,-70.304878,0.130371,-0.171875,0.912598
1762435497200895,-7.317073,-17.804878,-73.109756,0.126465,-0.185547,0.912109
1762435497210871,-13.719513,-23.231709,-63.780491,0.123047,-0.199219,0.915527
1762435497220848,-27.987806,-28.414635,-45.914635,0.121094,-0.214355,0.919922
1762435497230825,-34.756100,-30.731709,-25.914635,0.118652,-0.228516,0.924805
1762435497240802,-37.621952,-27.682928,-6.585366,0.116699,-0.237305,0.929688
1762435497250779,-39.817074,-20.914635,8.475610,0.113770,-0.242676,0.932617
1762435497260756,-33.231709,-15.548780,13.414635,0.110840,-0.246094,0.931152
1762435497270733,-22.439026,-13.719513,9.573171,0.108887,-0.246094,0.927734
1762435497280710,-10.731708,-11.524390,2.682927,0.106445,-0.246094,0.922852
1762435497290686,3.597561,-14.329268,-2.317073,0.104492,-0.244629,0.919922
1762435497300663,11.463415,-20.548780,-6.829268,0.107422,-0.245605,0.926270
1762435497310640,21.280489,-23.780489,-11.463415,0.115234,-0.245117,0.940918
1762435497320617,-1.890244,-26.646341,-16.097561,0.122559,-0.221680,0.949707
1762435497330595,-59.024391,-33.841465,-30.914635,0.126953,-0.209961,0.958496
1762435497340571,-51.890244,-46.219513,-43.353661,0.131836,-0.203613,0.970215
1762435497350550,-47.195122,-48.719513,-51.097561,0.136719,-0.202148,0.981445
1762435497360525,-46.158539,-39.390244,-44.817074,0.143555,-0.208496,0.996094
1762435497370501,-39.390244,-8.536586,-21.890244,0.149902,-0.230957,1.015137
1762435497380479,-17.012196,7.621952,-4.146341,0.149902,-0.229492,1.013184
1762435497390456,-38.963417,0.609756,-2.743902,0.143066,-0.229980,1.000977
1762435497400432,-33.292683,-18.353659,-6.158537,0.138184,-0.232422,0.989746
1762435497410409,-6.158537,-25.487806,-15.426829,0.138672,-0.237793,0.990234
1762435497420386,7.439024,-14.817074,-22.560976,0.141602,-0.238770,0.992188
1762435497430363,13.902439,-0.792683,-17.012196,0.142578,-0.246582,0.989258
1762435497440340,18.475611,5.792683,-4.878049,0.142578,-0.250488,0.984863
1762435497450317,17.439024,5.548780,-0.975610,0.147949,-0.248047,0.987305
1762435497460293,1.768293,15.487805,-1.646342,0.154297,-0.249023,0.989746
1762435497470271,-3.475610,35.121952,7.012195,0.156738,-0.259766,0.986816
1762435497480247,11.280488,48.475613,26.463415,0.157227,-0.271484,0.982422
1762435497490224,19.634148,47.500000,48.719513,0.158203,-0.272949,0.979980
1762435497500203,-3.353659,35.304878,74.146347,0.151855,-0.274902,0.965820
1762435497510178,6.158537,5.792683,96.463417,0.153320,-0.272461,0.965332
1762435497520155,9.634147,7.987805,80.487808,0.157715,-0.243652,0.968750
1762435497530132,9.390244,5.304878,54.085365,0.159180,-0.224609,0.971191
1762435497540110,14.756098,5.670732,24.207317,0.162598,-0.194336,0.974121
1762435497550085,-16.219513,-1.768293,-3.780488,0.163574,-0.172852,0.978027
1762435497560062,-39.878048,-4.024390,-25.000000,0.166504,-0.145020,0.985352
1762435497570039,-66.829269,-2.500000,-31.768293,0.167480,-0.144531,0.992676
1762435497580016,-69.512199,-1.036585,-28.292683,0.164551,-0.147949,0.992676
1762435497589993,-64.268295,2.500000,-18.841463,0.160645,-0.155273,0.987305
1762435497599970,-53.414635,4.451220,-9.329268,0.158691,-0.164062,0.984375
1762435497609947,-49.573174,12.743903,-5.182927,0.158691,-0.166016,0.983398
1762435497619924,-53.170734,25.548780,-5.000000,0.159180,-0.169922,0.982422
1762435497629901,-56.036587,36.890244,-4.024390,0.159668,-0.172363,0.982422
1762435497639877,-52.073174,57.804878,-1.097561,0.161133,-0.181641,0.988281
1762435497649854,-30.853659,97.134148,7.500000,0.167969,-0.198730,1.005859
1762435497659831,9.451220,148.292694,21.585367,0.174316,-0.229492,1.022949
1762435497669808,62.621952,190.000000,42.865856,0.175781,-0.257324,1.030273
1762435497679785,101.524391,203.414642,64.878052,0.165527,-0.278320,1.014160
1762435497689762,119.390244,193.414642,75.792686,0.146484,-0.278809,0.968750
1762435497699739,100.304878,162.439026,64.451218,0.116699,-0.267090,0.909668
1762435497709716,97.804878,76.585365,43.780487,0.079102,-0.261230,0.852539
1762435497719692,106.036591,-78.841469,19.207317,0.036133,-0.228027,0.781250
1762435497729670,35.182926,-290.670746,-17.256098,0.000000,-0.175781,0.696289
1762435497739646,14.268293,-602.804871,-49.512196,0.012695,-0.191406,0.677246
1762435497749623,139.390244,-290.121948,-7.378049,0.190430,-0.277832,0.979004
1762435497759600,121.707321,118.292686,25.304878,0.158203,-0.180176,1.000977
