Timestamp (us),Gyroscope X (deg/s),Gyroscope Y (deg/s),Gyroscope Z (deg/s),Accelerometer X (g),Accelerometer Y (g),Accelerometer Z (g)
65793139,-9.085366,-0.000000,-0.000000,0.000000,0.000000,0.000000
1762435482291172,-10.731708,0.000000,0.000000,0.000000,0.000000,0.000000
1762435482301070,8.414635,0.000000,0.000000,0.000000,0.000000,0.000000
1762435482310969,-4.268293,0.000000,0.000000,0.000000,0.000000,0.000000
1762435482320868,-9.756098,-0.000000,-0.000000,0.000000,0.000000,0.000000
1762435482330765,5.975610,0.000000,0.000000,0.000000,0.000000,0.000000
1762435482340664,7.865854,0.000000,0.000000,0.000000,0.000000,0.000000
1762435482350562,18.536587,0.000000,0.000000,0.000000,0.000000,0.000000
1762435482360460,7.317073,0.000000,0.000000,0.000000,0.000000,0.000000
1762435482370359,-14.634147,0.000000,0.000000,0.000000,0.000000,0.000000
1762435482380257,-3.353659,0.000000,0.000000,0.000000,0.000000,0.000000
1762435482390155,2.134146,0.000000,0.000000,0.000000,0.000000,0.000000
1762435482400054,9.451220,0.000000,0.000000,0.000000,0.000000,0.000000
1762435482409954,21.890244,0.000000,0.000000,0.000000,0.000000,0.000000
1762435482419850,10.060976,0.000000,0.000000,0.000000,0.000000,0.000000
1762435482429750,7.134147,0.000000,0.000000,0.000000,0.000000,0.000000
1762435482439647,5.731708,0.000000,0.000000,0.000000,0.000000,0.000000
1762435482449545,-8.231708,0.000000,0.000000,0.000000,0.000000,0.000000
1762435482459444,0.182927,0.000000,0.000000,0.000000,0.000000,0.000000
1762435482469342,14.695123,0.000000,0.000000,0.000000,0.000000,0.000000
1762435482479240,20.182928,0.000000,0.000000,0.000000,0.000000,0.000000
1762435482489138,20.000000,0.000000,0.000000,0.000000,0.000000,0.000000
1762435482499037,6.402439,0.000000,0.000000,0.000000,0.000000,0.000000
1762435482508935,-6.951220,0.000000,0.000000,0.000000,0.000000,0.000000
1762435482518834,7.865854,0.000000,0.000000,0.000000,0.000000,0.000000
1762435482528733,12.682927,0.000000,0.000000,0.000000,0.000000,0.000000
1762435482538630,5.365854,0.000000,0.000000,0.000000,0.000000,0.000000
1762435482548528,6.341464,0.000000,0.000000,0.000000,0.000000,0.000000
1762435482558427,-1.463415,0.000000,0.000000,0.000000,0.000000,0.000000
1762435482568325,-2.865854,0.000000,0.000000,0.000000,0.000000,0.000000
1762435482578223,3.902439,0.000000,0.000000,0.000000,0.000000,0.000000
1762435482588122,-5.000000,0.000000,0.000000,0.000000,0.000000,0.000000
1762435482598021,-7.865854,0.000000,0.000000,0.000000,0.000000,0.000000
1762435482607918,-2.500000,0.000000,0.000000,0.000000,0.000000,0.000000
1762435482617820,-5.182927,0.000000,0.000000,0.000000,0.000000,0.000000
1762435482627715,-9.939025,0.000000,0.000000,0.000000,0.000000,0.000000
1762435482637614,-17.560976,0.000000,0.000000,0.000000,0.000000,0.000000
1762435482647512,-22.317074,0.000000,0.000000,0.000000,0.000000,0.000000
1762435482657410,-15.121952,0.000000,0.000000,0.000000,0.000000,0.000000
1762435482667308,1.341463,0.000000,0.000000,0.000000,0.000000,0.000000
1762435482677206,-5.670732,0.000000,0.000000,0.000000,0.000000,0.000000
1762435482687105,-19.024391,0.000000,0.000000,0.000000,0.000000,0.000000
1762435482697003,-9.939025,0.000000,0.000000,0.000000,0.000000,0.000000
1762435482706901,0.792683,0.000000,0.000000,0.000000,0.000000,0.000000
1762435482716800,10.670732,0.000000,0.000000,0.000000,0.000000,0.000000
1762435482726699,12.073171,0.000000,0.000000,0.000000,0.000000,0.000000
1762435482736597,-2.804878,0.000000,0.000000,0.000000,0.000000,0.000000
1762435482746495,-1.341463,-0.000000,-0.000000,0.000000,0.000000,0.000000
1762435482756393,11.097561,0.000000,0.000000,0.000000,0.000000,0.000000
1762435482766292,3.780488,0.000000,0.000000,0.000000,0.000000,0.000000
1762435482776190,-5.670732,0.000000,0.000000,0.000000,0.000000,0.000000
1762435482786088,-9.085366,-0.000000,-0.000000,0.000000,0.000000,0.000000
1762435482795987,-9.634147,0.000000,0.000000,0.000000,0.000000,0.000000
1762435482805885,3.048780,0.000000,0.000000,0.000000,0.000000,0.000000
1762435482815783,4.939024,0.000000,0.000000,0.000000,0.000000,0.000000
1762435482825684,-13.475610,0.000000,0.000000,0.000000,0.000000,0.000000
1762435482835580,-17.256098,0.000000,0.000000,0.000000,0.000000,0.000000
1762435482845478,-7.987805,0.000000,0.000000,0.000000,0.000000,0.000000
1762435482855377,1.036585,0.000000,0.000000,0.000000,0.000000,0.000000
1762435482865275,7.195122,0.000000,0.000000,0.000000,0.000000,0.000000
1762435482875173,2.804878,0.000000,0.000000,0.000000,0.000000,0.000000
1762435482885074,0.000000,0.000000,0.000000,0.000000,0.000000,0.000000
1762435482894970,8.963415,0.000000,0.000000,0.000000,0.000000,0.000000
1762435482904869,8.048780,0.000000,0.000000,0.000000,0.000000,0.000000
1762435482914767,-2.378049,0.000000,0.000000,0.000000,0.000000,0.000000
1762435482924666,-3.841464,0.000000,0.000000,0.000000,0.000000,0.000000
1762435482934563,-4.390244,0.000000,0.000000,0.000000,0.000000,0.000000
1762435482944461,3.048780,0.000000,0.000000,0.000000,0.000000,0.000000
1762435482954360,2.134146,0.000000,0.000000,0.000000,0.000000,0.000000
1762435482964258,-17.012196,0.000000,0.000000,0.000000,0.000000,0.000000
1762435482974156,-23.963415,0.000000,0.000000,0.000000,0.000000,0.000000
1762435482984055,-16.158537,0.000000,0.000000,0.000000,0.000000,0.000000
1762435482993954,-8.414635,0.000000,0.000000,0.000000,0.000000,0.000000
1762435483003851,-3.658537,0.000000,0.000000,0.000000,0.000000,0.000000
1762435483013750,-9.634147,0.000000,0.000000,0.000000,0.000000,0.000000
1762435483023648,-14.695123,0.000000,0.000000,0.000000,0.000000,0.000000
1762435483033548,-2.621951,0.000000,0.000000,0.000000,0.000000,0.000000
1762435483043445,5.853659,0.000000,0.000000,0.000000,0.000000,0.000000
1762435483053343,1.768293,0.000000,0.000000,0.000000,0.000000,0.000000
1762435483063241,-3.475610,-0.000000,-0.000000,0.000000,0.000000,0.000000
1762435483073140,-5.426829,-0.000000,-0.000000,0.000000,0.000000,0.000000
1762435483083038,-2.073171,0.000000,0.000000,0.000000,0.000000,0.000000
1762435483092936,4.024390,0.000000,0.000000,0.000000,0.000000,0.000000
1762435483102834,-1.646342,0.000000,0.000000,0.000000,0.000000,0.000000
1762435483112733,-11.829268,0.000000,0.000000,0.000000,0.000000,0.000000
1762435483122631,-12.012196,0.000000,0.000000,0.000000,0.000000,0.000000
1762435483132531,-8.780488,0.000000,0.000000,0.000000,0.000000,0.000000
1762435483142428,-8.231708,0.000000,0.000000,0.000000,0.000000,0.000000
1762435483152326,-7.743903,0.000000,0.000000,0.000000,0.000000,0.000000
1762435483162224,-7.256098,0.000000,0.000000,0.000000,0.000000,0.000000
1762435483172123,-3.231707,0.000000,0.000000,0.000000,0.000000,0.000000
1762435483182021,4.939024,0.000000,0.000000,0.000000,0.000000,0.000000
1762435483191920,7.804878,0.000000,0.000000,0.000000,0.000000,0.000000
1762435483201818,6.768293,0.000000,0.000000,0.000000,0.000000,0.000000
1762435483211716,11.097561,0.000000,0.000000,0.000000,0.000000,0.000000
1762435483221616,18.597561,0.000000,0.000000,0.000000,0.000000,0.000000
1762435483231513,23.841463,0.000000,0.000000,0.000000,0.000000,0.000000
1762435483241412,25.548780,0.000000,0.000000,0.000000,0.000000,0.000000
1762435483251310,26.402439,0.000000,0.000000,0.000000,0.000000,0.000000
1762435483261208,25.304878,0.000000,0.000000,0.000000,0.000000,0.000000
1762435483271107,27.317074,0.000000,0.000000,0.000000,0.000000,0.000000
1762435483281005,33.536587,0.000000,0.000000,0.000000,0.000000,0.000000
1762435483290903,26.768293,0.000000,0.000000,0.000000,0.000000,0.000000
1762435483300802,11.707317,0.000000,0.000000,0.000000,0.000000,0.000000
1762435483310700,10.182927,0.000000,0.000000,0.000000,0.000000,0.000000
1762435483320598,12.134147,0.000000,0.000000,0.000000,0.000000,0.000000
1762435483330496,14.390244,0.000000,0.000000,0.000000,0.000000,0.000000
1762435483340395,14.146341,0.000000,0.000000,0.000000,0.000000,0.000000
1762435483350293,13.048780,0.000000,0.000000,0.000000,0.000000,0.000000
1762435483360191,9.085366,0.000000,0.000000,0.000000,0.000000,0.000000
1762435483370089,4.024390,0.000000,0.000000,0.000000,0.000000,0.000000
1762435483379988,10.792684,0.000000,0.000000,0.000000,0.000000,0.000000
1762435483389887,20.548780,0.000000,0.000000,0.000000,0.000000,0.000000
1762435483399784,22.987806,0.000000,0.000000,0.000000,0.000000,0.000000
1762435483409683,19.207317,0.000000,0.000000,0.000000,0.000000,0.000000
1762435483419581,10.792684,0.000000,0.000000,0.000000,0.000000,0.000000
1762435483429481,3.231707,0.000000,0.000000,0.000000,0.000000,0.000000
1762435483439378,1.158537,0.000000,0.000000,0.000000,0.000000,0.000000
1762435483449277,0.121951,0.000000,0.000000,0.000000,0.000000,0.000000
1762435483459174,-2.865854,0.000000,0.000000,0.000000,0.000000,0.000000
1762435483469073,-10.121951,0.000000,0.000000,0.000000,0.000000,0.000000
1762435483478971,-13.597561,0.000000,0.000000,0.000000,0.000000,0.000000
1762435483488870,-12.500000,0.000000,0.000000,0.000000,0.000000,0.000000
1762435483498768,0.792683,0.000000,0.000000,0.000000,0.000000,0.000000
1762435483508666,9.878049,0.000000,0.000000,0.000000,0.000000,0.000000
1762435483518565,7.073171,0.000000,0.000000,0.000000,0.000000,0.000000
1762435483528463,11.280488,0.000000,0.000000,0.000000,0.000000,0.000000
1762435483538361,22.987806,0.000000,0.000000,0.000000,0.000000,0.000000
1762435483548260,25.487806,0.000000,0.000000,0.000000,0.000000,0.000000
1762435483558158,18.414635,0.000000,0.000000,0.000000,0.000000,0.000000
1762435483568056,5.914634,0.000000,0.000000,0.000000,0.000000,0.000000
1762435483577955,-1.951220,-0.000000,-0.000000,0.000000,0.000000,0.000000
1762435483587853,1.890244,0.000000,0.000000,0.000000,0.000000,0.000000
1762435483597751,1.402439,0.000000,0.000000,0.000000,0.000000,0.000000
1762435483607650,-10.365854,0.000000,0.000000,0.000000,0.000000,0.000000
1762435483617548,-9.939025,0.000000,0.000000,0.000000,0.000000,0.000000
1762435483627446,5.487805,0.000000,0.000000,0.000000,0.000000,0.000000
1762435483637346,9.817074,0.000000,0.000000,0.000000,0.000000,0.000000
1762435483647243,4.939024,0.000000,0.000000,0.000000,0.000000,0.000000
1762435483657141,11.341464,0.000000,0.000000,0.000000,0.000000,0.000000
1762435483667042,11.890244,0.000000,0.000000,0.000000,0.000000,0.000000
1762435483676938,14.268293,0.000000,0.000000,0.000000,0.000000,0.000000
1762435483686837,26.463415,0.000000,0.000000,0.000000,0.000000,0.000000
1762435483696735,22.865854,0.000000,0.000000,0.000000,0.000000,0.000000
1762435483706633,9.329268,0.000000,0.000000,0.000000,0.000000,0.000000
1762435483716531,3.841464,0.000000,0.000000,0.000000,0.000000,0.000000
1762435483726430,-3.231707,0.000000,0.000000,0.000000,0.000000,0.000000
1762435483736329,7.682927,0.000000,0.000000,0.000000,0.000000,0.000000
1762435483746227,-2.256098,0.000000,0.000000,0.000000,0.000000,0.000000
1762435483756125,13.414635,0.000000,0.000000,0.000000,0.000000,0.000000
1762435483766023,45.853661,0.000000,0.000000,0.000000,0.000000,0.000000
1762435483775922,19.878050,0.000000,0.000000,0.000000,0.000000,0.000000
1762435483785821,-10.182927,0.000000,0.000000,0.000000,0.000000,0.000000
1762435483795718,5.731708,0.000000,0.000000,0.000000,0.000000,0.000000
1762435483805617,45.243904,0.000000,0.000000,0.000000,0.000000,0.000000
1762435483815515,51.341465,0.000000,0.000000,0.000000,0.000000,0.000000
1762435483825415,0.182927,0.000000,0.000000,0.000000,0.000000,0.000000
1762435483835312,-29.329269,0.000000,0.000000,0.000000,0.000000,0.000000
1762435483845211,13.719513,0.000000,0.000000,0.000000,0.000000,0.000000
1762435483855108,26.219513,0.000000,0.000000,0.000000,0.000000,0.000000
1762435483865007,-24.878050,-0.000000,-0.000000,0.000000,0.000000,0.000000
1762435483874905,-32.439026,-0.000000,-0.000000,0.000000,0.000000,0.000000
1762435483884803,19.085367,0.000000,0.000000,0.000000,0.000000,0.000000
1762435483894702,8.353659,0.000000,0.000000,0.000000,0.000000,0.000000
1762435483904600,-29.634148,0.000000,0.000000,0.000000,0.000000,0.000000
1762435483914498,-11.158537,0.000000,0.000000,0.000000,0.000000,0.000000
1762435483924397,24.024391,0.000000,0.000000,0.000000,0.000000,0.000000
1762435483934295,19.024391,0.000000,0.000000,0.000000,0.000000,0.000000
1762435483944195,-3.963415,-0.000000,-0.000000,0.000000,0.000000,0.000000
1762435483954092,-5.060976,-0.000000,-0.000000,0.000000,0.000000,0.000000
1762435483963990,13.414635,0.000000,0.000000,0.000000,0.000000,0.000000
1762435483973888,8.475610,0.000000,0.000000,0.000000,0.000000,0.000000
1762435483983787,-22.012196,0.000000,0.000000,0.000000,0.000000,0.000000
1762435483993685,-16.646341,-0.000000,-0.000000,0.000000,0.000000,0.000000
1762435484003583,15.792684,0.000000,0.000000,0.000000,0.000000,0.000000
1762435484013482,-5.731708,0.000000,0.000000,0.000000,0.000000,0.000000
1762435484023380,-36.158539,0.000000,0.000000,0.000000,0.000000,0.000000
1762435484033280,-9.146341,0.000000,0.000000,0.000000,0.000000,0.000000
1762435484043176,11.707317,0.000000,0.000000,0.000000,0.000000,0.000000
1762435484053075,-4.695122,0.000000,0.000000,0.000000,0.000000,0.000000
1762435484062973,-8.170732,-0.000000,-0.000000,0.000000,0.000000,0.000000
1762435484072871,8.170732,0.000000,0.000000,0.000000,0.000000,0.000000
1762435484082770,9.329268,0.000000,0.000000,0.000000,0.000000,0.000000
1762435484092668,-5.182927,0.000000,0.000000,0.000000,0.000000,0.000000
1762435484102566,-14.878049,0.000000,0.000000,0.000000,0.000000,0.000000
1762435484112465,1.219512,0.000000,0.000000,0.000000,0.000000,0.000000
1762435484122363,7.256098,0.000000,0.000000,0.000000,0.000000,0.000000
1762435484132262,-12.256098,-0.000000,-0.000000,0.000000,0.000000,0.000000
1762435484142160,-18.841463,0.000000,0.000000,0.000000,0.000000,0.000000
1762435484152058,-4.451220,0.000000,0.000000,0.000000,0.000000,0.000000
1762435484161957,-3.902439,0.000000,0.000000,0.000000,0.000000,0.000000
1762435484171855,-13.109756,0.000000,0.000000,0.000000,0.000000,0.000000
1762435484181754,-1.829268,-0.000000,-0.000000,0.000000,0.000000,0.000000
1762435484191652,16.646341,0.000000,0.000000,0.000000,0.000000,0.000000
1762435484201550,4.207317,0.000000,0.000000,0.000000,0.000000,0.000000
1762435484211448,-11.524390,0.000000,0.000000,0.000000,0.000000,0.000000
1762435484221347,-1.707317,0.000000,0.000000,0.000000,0.000000,0.000000
1762435484231245,4.573171,0.000000,0.000000,0.000000,0.000000,0.000000
1762435484241145,5.731708,0.000000,0.000000,0.000000,0.000000,0.000000
1762435484251042,-2.926829,-0.000000,-0.000000,0.000000,0.000000,0.000000
1762435484260940,-4.573171,0.000000,0.000000,0.000000,0.000000,0.000000
1762435484270838,-1.768293,0.000000,0.000000,0.000000,0.000000,0.000000
1762435484280737,-9.695122,0.000000,0.000000,0.000000,0.000000,0.000000
1762435484290635,-14.085366,0.000000,0.000000,0.000000,0.000000,0.000000
1762435484300533,1.951220,0.000000,0.000000,0.000000,0.000000,0.000000
1762435484310432,9.390244,0.000000,0.000000,0.000000,0.000000,0.000000
1762435484320330,-4.939024,0.000000,0.000000,0.000000,0.000000,0.000000
1762435484330228,-3.475610,-0.000000,-0.000000,0.000000,0.000000,0.000000
1762435484340128,5.243903,0.000000,0.000000,0.000000,0.000000,0.000000
1762435484350025,0.304878,0.000000,0.000000,0.000000,0.000000,0.000000
1762435484359923,-1.219512,0.000000,0.000000,0.000000,0.000000,0.000000
1762435484369822,-4.085366,0.000000,0.000000,0.000000,0.000000,0.000000
1762435484379720,-9.085366,0.000000,0.000000,0.000000,0.000000,0.000000
1762435484389619,-0.121951,0.000000,0.000000,0.000000,0.000000,0.000000
1762435484399516,-8.780488,0.000000,0.000000,0.000000,0.000000,0.000000
1762435484409415,-18.475611,0.000000,0.000000,0.000000,0.000000,0.000000
1762435484419313,3.658537,0.000000,0.000000,0.000000,0.000000,0.000000
1762435484429214,8.109756,0.000000,0.000000,0.000000,0.000000,0.000000
1762435484439110,-3.048780,0.000000,0.000000,0.000000,0.000000,0.000000
1762435484449009,6.463415,0.000000,0.000000,0.000000,0.000000,0.000000
1762435484458906,7.439024,0.000000,0.000000,0.000000,0.000000,0.000000
1762435484468805,-1.829268,0.000000,0.000000,0.000000,0.000000,0.000000
1762435484478703,-7.134147,0.000000,0.000000,0.000000,0.000000,0.000000
1762435484488601,8.963415,0.000000,0.000000,0.000000,0.000000,0.000000
1762435484498500,9.085366,0.000000,0.000000,0.000000,0.000000,0.000000
1762435484508398,6.280488,0.000000,0.000000,0.000000,0.000000,0.000000
1762435484518296,-2.378049,-0.000000,-0.000000,0.000000,0.000000,0.000000
1762435484528195,-3.841464,0.000000,0.000000,0.000000,0.000000,0.000000
1762435484538093,22.926830,0.000000,0.000000,0.000000,0.000000,0.000000
1762435484547992,20.548780,0.000000,0.000000,0.000000,0.000000,0.000000
1762435484557890,-8.658537,-0.000000,-0.000000,0.000000,0.000000,0.000000
1762435484567788,9.695122,0.000000,0.000000,0.000000,0.000000,0.000000
1762435484577687,43.353661,0.000000,0.000000,0.000000,0.000000,0.000000
1762435484587585,32.195122,0.000000,0.000000,0.000000,0.000000,0.000000
1762435484597483,21.707317,0.000000,0.000000,0.000000,0.000000,0.000000
1762435484607382,47.378052,0.000000,0.000000,0.000000,0.000000,0.000000
1762435484617280,68.048782,0.000000,0.000000,0.000000,0.000000,0.000000
1762435484627178,58.841465,0.000000,0.000000,0.000000,0.000000,0.000000
1762435484637079,43.231709,0.000000,0.000000,0.000000,0.000000,0.000000
1762435484646975,42.560978,0.000000,0.000000,0.000000,0.000000,0.000000
1762435484656875,42.195122,0.000000,0.000000,0.000000,0.000000,0.000000
1762435484666772,23.841463,0.000000,0.000000,0.000000,0.000000,0.000000
1762435484676670,23.658537,0.000000,0.000000,0.000000,0.000000,0.000000
1762435484686568,53.963417,0.000000,0.000000,0.000000,0.000000,0.000000
1762435484696467,68.109756,0.000000,0.000000,0.000000,0.000000,0.000000
1762435484706365,61.524391,0.000000,0.000000,0.000000,0.000000,0.000000
1762435484716263,72.560974,0.000000,0.000000,0.000000,0.000000,0.000000
1762435484726162,88.048782,0.000000,0.000000,0.000000,0.000000,0.000000
1762435484736060,88.231712,0.000000,0.000000,0.000000,0.000000,0.000000
1762435484745959,88.536591,0.000000,0.000000,0.000000,0.000000,0.000000
1762435484755857,85.487808,0.000000,0.000000,0.000000,0.000000,0.000000
1762435484765755,86.341469,0.000000,0.000000,0.000000,0.000000,0.000000
1762435484775653,101.158539,0.000000,0.000000,0.000000,0.000000,0.000000
1762435484785551,101.829269,0.000000,0.000000,0.000000,0.000000,0.000000
1762435484795450,81.402443,0.000000,0.000000,0.000000,0.000000,0.000000
1762435484805348,91.890244,0.000000,0.000000,0.000000,0.000000,0.000000
1762435484815246,107.621956,0.000000,0.000000,0.000000,0.000000,0.000000
1762435484825145,79.085365,0.000000,0.000000,0.000000,0.000000,0.000000
1762435484835043,90.975609,0.000000,0.000000,0.000000,0.000000,0.000000
1762435484844943,129.573181,0.000000,0.000000,0.000000,0.000000,0.000000
1762435484854840,109.878052,0.000000,0.000000,0.000000,0.000000,0.000000
1762435484864738,118.353661,0.000000,0.000000,0.000000,0.000000,0.000000
1762435484874636,167.865860,0.000000,0.000000,0.000000,0.000000,0.000000
1762435484884535,139.878052,0.000000,0.000000,0.000000,0.000000,0.000000
1762435484894433,111.768295,0.000000,0.000000,0.000000,0.000000,0.000000
1762435484904331,139.329269,0.000000,0.000000,0.000000,0.000000,0.000000
1762435484914230,109.573174,0.000000,0.000000,0.000000,0.000000,0.000000
1762435484924128,65.731712,0.000000,0.000000,0.000000,0.000000,0.000000
1762435484934026,86.524391,0.000000,0.000000,0.000000,0.000000,0.000000
1762435484943925,74.390244,0.000000,0.000000,0.000000,0.000000,0.000000
1762435484953823,45.975613,0.000000,0.000000,0.000000,0.000000,0.000000
1762435484963722,78.353661,0.000000,0.000000,0.000000,0.000000,0.000000
1762435484973620,87.439026,0.000000,0.000000,0.000000,0.000000,0.000000
1762435484983518,87.987808,0.000000,0.000000,0.000000,0.000000,0.000000
1762435484993416,116.829269,0.000000,0.000000,0.000000,0.000000,0.000000
1762435485003316,102.743904,0.000000,0.000000,0.000000,0.000000,0.000000
1762435485013213,96.829269,0.000000,0.000000,0.000000,0.000000,0.000000
1762435485023111,92.865852,0.000000,0.000000,0.000000,0.000000,0.000000
1762435485033010,52.134148,0.000000,0.000000,0.000000,0.000000,0.000000
1762435485042908,46.280487,0.000000,0.000000,0.000000,0.000000,0.000000
1762435485052808,24.939026,0.000000,0.000000,0.000000,0.000000,0.000000
1762435485062705,-14.756098,-0.000000,-0.000000,0.000000,0.000000,0.000000
1762435485072603,-1.402439,-0.000000,-0.000000,0.000000,0.000000,0.000000
1762435485082501,8.292683,0.000000,0.000000,0.000000,0.000000,0.000000
1762435485092400,11.829268,0.000000,0.000000,0.000000,0.000000,0.000000
1762435485102299,59.756100,0.000000,0.000000,0.000000,0.000000,0.000000
1762435485112197,103.170731,0.000000,0.000000,0.000000,0.000000,0.000000
1762435485122095,102.560982,0.000000,0.000000,0.000000,0.000000,0.000000
1762435485131993,76.036591,0.000000,0.000000,0.000000,0.000000,0.000000
1762435485141892,2.134146,0.000000,0.000000,0.000000,0.000000,0.000000
1762435485151791,-65.548782,0.000000,0.000000,0.000000,0.000000,0.000000
1762435485161688,-88.719513,-0.000000,-0.000000,0.000000,0.000000,0.000000
1762435485171586,-72.682930,-0.000000,-0.000000,0.000000,0.000000,0.000000
1762435485181485,-41.585365,-0.000000,-0.000000,0.000000,0.000000,0.000000
1762435485191384,-16.280489,-0.000000,-0.000000,0.000000,0.000000,0.000000
1762435485201282,7.621952,0.000000,0.000000,0.000000,0.000000,0.000000
1762435485211180,18.658537,0.000000,0.000000,0.000000,0.000000,0.000000
1762435485221078,18.414635,0.000000,0.000000,0.000000,0.000000,0.000000
1762435485230976,-23.414635,0.000000,0.000000,0.000000,0.000000,0.000000
1762435485240878,-8.841464,-0.000000,-0.000000,0.000000,0.000000,0.000000
1762435485250773,-3.658537,-0.000000,-0.000000,0.000000,0.000000,0.000000
1762435485260672,12.804878,0.000000,0.000000,0.000000,0.000000,0.000000
1762435485270570,23.475611,0.000000,0.000000,0.000000,0.000000,0.000000
1762435485280468,28.658537,0.000000,0.000000,0.000000,0.000000,0.000000
1762435485290366,40.792683,0.000000,0.000000,0.000000,0.000000,0.000000
1762435485300265,46.158539,0.000000,0.000000,0.000000,0.000000,0.000000
1762435485310163,31.951220,0.000000,0.000000,0.000000,0.000000,0.000000
1762435485320061,14.878049,0.000000,0.000000,0.000000,0.000000,0.000000
1762435485329960,-1.524390,-0.000000,-0.000000,0.000000,0.000000,0.000000
1762435485339858,13.963415,0.000000,0.000000,0.000000,0.000000,0.000000
1762435485349756,-35.182926,-0.000000,-0.000000,0.000000,0.000000,0.000000
1762435485359656,-59.512196,-0.000000,-0.000000,0.000000,0.000000,0.000000
1762435485369553,-33.109756,-0.000000,-0.000000,0.000000,0.000000,0.000000
1762435485379451,-26.585367,0.000000,0.000000,0.000000,0.000000,0.000000
1762435485389350,-33.048782,0.000000,0.000000,0.000000,0.000000,0.000000
1762435485399248,-38.231709,0.000000,0.000000,0.000000,0.000000,0.000000
1762435485409147,-44.634148,0.000000,0.000000,0.000000,0.000000,0.000000
1762435485419044,-37.317074,0.000000,0.000000,0.000000,0.000000,0.000000
1762435485428943,-38.353661,0.000000,0.000000,0.000000,0.000000,0.000000
1762435485438841,-43.902439,0.000000,0.000000,0.000000,0.000000,0.000000
1762435485448742,-33.231709,0.000000,0.000000,0.000000,0.000000,0.000000
1762435485458638,-46.768295,0.000000,0.000000,0.000000,0.000000,0.000000
1762435485468537,-44.268295,0.000000,0.000000,0.000000,0.000000,0.000000
1762435485478435,-40.731709,0.000000,0.000000,0.000000,0.000000,0.000000
1762435485488334,-43.292683,0.000000,0.000000,0.000000,0.000000,0.000000
1762435485498232,-37.621952,0.000000,0.000000,0.000000,0.000000,0.000000
1762435485508130,-59.146343,0.000000,0.000000,0.000000,0.000000,0.000000
1762435485518028,-60.975613,0.000000,0.000000,0.000000,0.000000,0.000000
1762435485527926,-47.500000,0.000000,0.000000,0.000000,0.000000,0.000000
1762435485537825,-74.268295,0.000000,0.000000,0.000000,0.000000,0.000000
1762435485547723,-29.024391,0.000000,0.000000,0.000000,0.000000,0.000000
1762435485557621,44.329269,0.000000,0.000000,0.000000,0.000000,0.000000
1762435485567520,0.609756,0.000000,0.000000,0.000000,0.000000,0.000000
1762435485577418,5.000000,0.000000,0.000000,0.000000,0.000000,0.000000
1762435485587316,36.036587,0.000000,0.000000,0.000000,0.000000,0.000000
1762435485597215,40.243904,0.000000,0.000000,0.000000,0.000000,0.000000
1762435485607113,28.658537,0.000000,0.000000,0.000000,0.000000,0.000000
1762435485617011,30.548780,0.000000,0.000000,0.000000,0.000000,0.000000
1762435485626910,48.963417,0.000000,0.000000,0.000000,0.000000,0.000000
1762435485636808,84.207321,0.000000,0.000000,0.000000,0.000000,0.000000
1762435485646706,87.195122,0.000000,0.000000,0.000000,0.000000,0.000000
1762435485656607,119.329269,0.000000,0.000000,0.000000,0.000000,0.000000
1762435485666503,125.000000,0.000000,0.000000,0.000000,0.000000,0.000000
1762435485676402,30.731709,0.000000,0.000000,0.000000,0.000000,0.000000
1762435485686300,101.768295,0.000000,0.000000,0.000000,0.000000,0.000000
1762435485696198,40.792683,0.000000,0.000000,0.000000,0.000000,0.000000
1762435485706096,26.646341,0.000000,0.000000,0.000000,0.000000,0.000000
1762435485715994,47.926830,0.000000,0.000000,0.000000,0.000000,0.000000
1762435485725893,-41.036587,0.000000,0.000000,0.000000,0.000000,0.000000
1762435485735791,-9.512196,0.000000,0.000000,0.000000,0.000000,0.000000
1762435485745690,-67.134148,0.000000,0.000000,0.000000,0.000000,0.000000
1762435485755588,-117.378052,0.000000,0.000000,0.000000,0.000000,0.000000
1762435485765486,-173.475616,0.000000,0.000000,0.000000,0.000000,0.000000
1762435485775385,-47.012196,0.000000,0.000000,0.000000,0.000000,0.000000
1762435485785283,97.804878,0.000000,0.000000,0.000000,0.000000,0.000000
1762435485795182,-22.987806,0.000000,0.000000,0.000000,0.000000,0.000000
1762435485805080,-4.207317,0.000000,0.000000,0.000000,0.000000,0.000000
1762435485814978,60.060978,0.000000,0.000000,0.000000,0.000000,0.000000
1762435485824876,55.914635,0.000000,0.000000,0.000000,0.000000,0.000000
1762435485834775,50.609756,0.000000,0.000000,0.000000,0.000000,0.000000
1762435485844673,64.085365,0.000000,0.000000,0.000000,0.000000,0.000000
1762435485854571,102.073174,0.000000,0.000000,0.000000,0.000000,0.000000
1762435485864472,48.109756,0.000000,0.000000,0.000000,0.000000,0.000000
1762435485874368,-34.634148,0.000000,0.000000,0.000000,0.000000,0.000000
1762435485884267,101.585365,0.000000,0.000000,0.000000,0.000000,0.000000
1762435485894165,91.036591,0.000000,0.000000,0.000000,0.000000,0.000000
1762435485904063,-2.743902,0.000000,0.000000,0.000000,0.000000,0.000000
1762435485913962,-22.073172,0.000000,0.000000,0.000000,0.000000,0.000000
1762435485923860,24.024391,0.000000,0.000000,0.000000,0.000000,0.000000
1762435485933758,29.451220,0.000000,0.000000,0.000000,0.000000,0.000000
1762435485943657,-50.670734,0.000000,0.000000,0.000000,0.000000,0.000000
1762435485953555,-79.207321,0.000000,0.000000,0.000000,0.000000,0.000000
1762435485963454,-46.036587,0.000000,0.000000,0.000000,0.000000,0.000000
1762435485973352,6.402439,0.000000,0.000000,0.000000,0.000000,0.000000
1762435485983250,-44.817074,0.000000,0.000000,0.000000,0.000000,0.000000
1762435485993148,-102.256104,0.000000,0.000000,0.000000,0.000000,0.000000
1762435486003047,-117.195122,0.000000,0.000000,0.000000,0.000000,0.000000
1762435486012945,-91.463417,0.000000,0.000000,0.000000,0.000000,0.000000
1762435486022844,-41.585365,0.000000,0.000000,0.000000,0.000000,0.000000
1762435486032742,-53.963417,0.000000,0.000000,0.000000,0.000000,0.000000
1762435486042640,-96.829269,0.000000,0.000000,0.000000,0.000000,0.000000
1762435486052539,-67.682930,0.000000,0.000000,0.000000,0.000000,0.000000
1762435486062437,-60.914635,0.000000,0.000000,0.000000,0.000000,0.000000
1762435486072336,-106.463417,0.000000,0.000000,0.000000,0.000000,0.000000
1762435486082233,-100.914635,0.000000,0.000000,0.000000,0.000000,0.000000
1762435486092132,-74.878052,0.000000,0.000000,0.000000,0.000000,0.000000
1762435486102030,-110.426834,0.000000,0.000000,0.000000,0.000000,0.000000
1762435486111928,-155.243912,0.000000,0.000000,0.000000,0.000000,0.000000
1762435486121827,-143.780487,0.000000,0.000000,0.000000,0.000000,0.000000
1762435486131725,-100.914635,0.000000,0.000000,0.000000,0.000000,0.000000
1762435486141623,-100.670731,0.000000,0.000000,0.000000,0.000000,0.000000
1762435486151522,-126.646347,0.000000,0.000000,0.000000,0.000000,0.000000
1762435486161420,-111.341469,0.000000,0.000000,0.000000,0.000000,0.000000
1762435486171320,-70.182930,0.000000,0.000000,0.000000,0.000000,0.000000
1762435486181217,-53.597561,0.000000,0.000000,0.000000,0.000000,0.000000
1762435486191115,-64.756096,0.000000,0.000000,0.000000,0.000000,0.000000
1762435486201013,-81.402443,0.000000,0.000000,0.000000,0.000000,0.000000
1762435486210911,-83.597565,0.000000,0.000000,0.000000,0.000000,0.000000
1762435486220810,-92.743904,0.000000,0.000000,0.000000,0.000000,0.000000
1762435486230708,-121.402443,0.000000,0.000000,0.000000,0.000000,0.000000
1762435486240607,-146.951218,0.000000,0.000000,0.000000,0.000000,0.000000
1762435486250505,-152.012192,0.000000,0.000000,0.000000,0.000000,0.000000
1762435486260403,-150.000000,0.000000,0.000000,0.000000,0.000000,0.000000
1762435486270301,-142.317078,0.000000,0.000000,0.000000,0.000000,0.000000
1762435486280200,-113.536591,0.000000,0.000000,0.000000,0.000000,0.000000
1762435486290098,-90.182930,0.000000,0.000000,0.000000,0.000000,0.000000
1762435486299996,-78.841469,0.000000,0.000000,0.000000,0.000000,0.000000
1762435486309894,-62.256100,0.000000,0.000000,0.000000,0.000000,0.000000
1762435486319792,-49.817074,0.000000,0.000000,0.000000,0.000000,0.000000
1762435486329691,-37.012196,0.000000,0.000000,0.000000,0.000000,0.000000
1762435486339590,-19.878050,0.000000,0.000000,0.000000,0.000000,0.000000
1762435486349488,0.000000,0.000000,0.000000,0.000000,0.000000,0.000000
1762435486359386,1.585366,0.000000,0.000000,0.000000,0.000000,0.000000
1762435486369285,-18.780489,0.000000,0.000000,0.000000,0.000000,0.000000
1762435486379184,-33.658539,-0.000000,-0.000000,0.000000,0.000000,0.000000
1762435486389082,-61.280491,0.000000,0.000000,0.000000,0.000000,0.000000
1762435486398980,-80.000000,0.000000,0.000000,0.000000,0.000000,0.000000
1762435486408878,-80.609756,0.000000,0.000000,0.000000,0.000000,0.000000
1762435486418777,-88.475609,0.000000,0.000000,0.000000,0.000000,0.000000
1762435486428675,-68.841469,0.000000,0.000000,0.000000,0.000000,0.000000
1762435486438573,-32.621952,0.000000,0.000000,0.000000,0.000000,0.000000
1762435486448472,-26.585367,0.000000,0.000000,0.000000,0.000000,0.000000
1762435486458370,-27.987806,0.000000,0.000000,0.000000,0.000000,0.000000
1762435486468268,-21.097561,0.000000,0.000000,0.000000,0.000000,0.000000
1762435486478166,-6.585366,0.000000,0.000000,0.000000,0.000000,0.000000
1762435486488066,-9.878049,0.000000,0.000000,0.000000,0.000000,0.000000
1762435486497963,-33.780487,0.000000,0.000000,0.000000,0.000000,0.000000
1762435486507861,-46.402439,0.000000,0.000000,0.000000,0.000000,0.000000
1762435486517760,-36.646343,0.000000,0.000000,0.000000,0.000000,0.000000
1762435486527658,-27.926830,0.000000,0.000000,0.000000,0.000000,0.000000
1762435486537556,-39.390244,0.000000,0.000000,0.000000,0.000000,0.000000
1762435486547454,-72.560974,0.000000,0.000000,0.000000,0.000000,0.000000
1762435486557353,-90.548782,0.000000,0.000000,0.000000,0.000000,0.000000
1762435486567251,-80.548782,0.000000,0.000000,0.000000,0.000000,0.000000
1762435486577150,-63.963417,0.000000,0.000000,0.000000,0.000000,0.000000
1762435486587048,-49.695122,0.000000,0.000000,0.000000,0.000000,0.000000
1762435486596946,-33.536587,0.000000,0.000000,0.000000,0.000000,0.000000
1762435486606844,-8.963415,0.000000,0.000000,0.000000,0.000000,0.000000
1762435486616743,11.707317,0.000000,0.000000,0.000000,0.000000,0.000000
1762435486626641,14.939025,0.000000,0.000000,0.000000,0.000000,0.000000
1762435486636540,-3.536585,0.000000,0.000000,0.000000,0.000000,0.000000
1762435486646438,-27.743902,0.000000,0.000000,0.000000,0.000000,0.000000
1762435486656336,-18.048780,0.000000,0.000000,0.000000,0.000000,0.000000
1762435486666234,46.585365,0.000000,0.000000,0.000000,0.000000,0.000000
1762435486676132,81.280487,0.000000,0.000000,0.000000,0.000000,0.000000
1762435486686031,49.695122,0.000000,0.000000,0.000000,0.000000,0.000000
1762435486695931,-8.597561,0.000000,0.000000,0.000000,0.000000,0.000000
1762435486705828,-54.207317,0.000000,0.000000,0.000000,0.000000,0.000000
1762435486715726,-60.060978,0.000000,0.000000,0.000000,0.000000,0.000000
1762435486725624,-48.475613,0.000000,0.000000,0.000000,0.000000,0.000000
1762435486735522,-58.719513,0.000000,0.000000,0.000000,0.000000,0.000000
1762435486745421,-43.536587,0.000000,0.000000,0.000000,0.000000,0.000000
1762435486755319,23.719513,0.000000,0.000000,0.000000,0.000000,0.000000
1762435486765217,83.536591,0.000000,0.000000,0.000000,0.000000,0.000000
1762435486775116,91.463417,0.000000,0.000000,0.000000,0.000000,0.000000
1762435486785014,54.390244,0.000000,0.000000,0.000000,0.000000,0.000000
1762435486794912,-16.951220,0.000000,0.000000,0.000000,0.000000,0.000000
1762435486804811,-91.280487,0.000000,0.000000,0.000000,0.000000,0.000000
1762435486814709,-101.646347,0.000000,0.000000,0.000000,0.000000,0.000000
1762435486824607,-46.585365,0.000000,0.000000,0.000000,0.000000,0.000000
1762435486834506,38.841465,0.000000,0.000000,0.000000,0.000000,0.000000
1762435486844404,71.890244,0.000000,0.000000,0.000000,0.000000,0.000000
1762435486854302,47.500000,0.000000,0.000000,0.000000,0.000000,0.000000
1762435486864200,5.000000,0.000000,0.000000,0.000000,0.000000,0.000000
1762435486874099,-59.451221,0.000000,0.000000,0.000000,0.000000,0.000000
1762435486883997,-47.378052,0.000000,0.000000,0.000000,0.000000,0.000000
1762435486893895,-34.146343,0.000000,0.000000,0.000000,0.000000,0.000000
1762435486903796,-41.646343,0.000000,0.000000,0.000000,0.000000,0.000000
1762435486913692,18.719513,0.000000,0.000000,0.000000,0.000000,0.000000
1762435486923591,32.621952,0.000000,0.000000,0.000000,0.000000,0.000000
1762435486933489,29.207317,0.000000,0.000000,0.000000,0.000000,0.000000
1762435486943387,11.463415,0.000000,0.000000,0.000000,0.000000,0.000000
1762435486953285,-26.097561,0.000000,0.000000,0.000000,0.000000,0.000000
1762435486963184,-18.231709,0.000000,0.000000,0.000000,0.000000,0.000000
1762435486973082,-6.463415,0.000000,0.000000,0.000000,0.000000,0.000000
1762435486982980,0.487805,0.000000,0.000000,0.000000,0.000000,0.000000
1762435486992880,10.487805,0.000000,0.000000,0.000000,0.000000,0.000000
1762435487002777,-1.036585,0.000000,0.000000,0.000000,0.000000,0.000000
1762435487012675,-2.987805,0.000000,0.000000,0.000000,0.000000,0.000000
1762435487022575,-2.378049,0.000000,0.000000,0.000000,0.000000,0.000000
1762435487032472,13.597561,0.000000,0.000000,0.000000,0.000000,0.000000
1762435487042370,7.012195,0.000000,0.000000,0.000000,0.000000,0.000000
1762435487052268,-12.439025,0.000000,0.000000,0.000000,0.000000,0.000000
1762435487062167,-16.036585,-0.000000,-0.000000,0.000000,0.000000,0.000000
1762435487072065,-41.219513,-0.000000,-0.000000,0.000000,0.000000,0.000000
1762435487081964,-25.487806,-0.000000,-0.000000,0.000000,0.000000,0.000000
1762435487091862,5.548780,0.000000,0.000000,0.000000,0.000000,0.000000
1762435487101760,8.353659,0.000000,0.000000,0.000000,0.000000,0.000000
1762435487111658,11.280488,0.000000,0.000000,0.000000,0.000000,0.000000
1762435487121557,4.329268,0.000000,0.000000,0.000000,0.000000,0.000000
1762435487131456,-23.475611,0.000000,0.000000,0.000000,0.000000,0.000000
1762435487141353,-41.890244,0.000000,0.000000,0.000000,0.000000,0.000000
1762435487151252,-14.207317,-0.000000,-0.000000,0.000000,0.000000,0.000000
1762435487161150,2.804878,0.000000,0.000000,0.000000,0.000000,0.000000
1762435487171048,26.829269,0.000000,0.000000,0.000000,0.000000,0.000000
1762435487180947,33.292683,0.000000,0.000000,0.000000,0.000000,0.000000
1762435487190845,21.707317,0.000000,0.000000,0.000000,0.000000,0.000000
1762435487200743,28.536587,0.000000,0.000000,0.000000,0.000000,0.000000
1762435487210642,11.829268,0.000000,0.000000,0.000000,0.000000,0.000000
1762435487220540,-6.280488,0.000000,0.000000,0.000000,0.000000,0.000000
1762435487230438,-10.670732,-0.000000,-0.000000,0.000000,0.000000,0.000000
1762435487240337,-6.280488,0.000000,0.000000,0.000000,0.000000,0.000000
1762435487250235,-10.731708,0.000000,0.000000,0.000000,0.000000,0.000000
1762435487260133,-26.036587,0.000000,0.000000,0.000000,0.000000,0.000000
1762435487270031,-46.402439,0.000000,0.000000,0.000000,0.000000,0.000000
1762435487279930,-56.829269,0.000000,0.000000,0.000000,0.000000,0.000000
1762435487289828,-55.914635,0.000000,0.000000,0.000000,0.000000,0.000000
1762435487299726,-27.926830,0.000000,0.000000,0.000000,0.000000,0.000000
1762435487309625,-8.780488,0.000000,0.000000,0.000000,0.000000,0.000000
1762435487319523,-26.097561,0.000000,0.000000,0.000000,0.000000,0.000000
1762435487329422,-37.256100,0.000000,0.000000,0.000000,0.000000,0.000000
1762435487339322,-57.743904,0.000000,0.000000,0.000000,0.000000,0.000000
1762435487349218,-57.012196,0.000000,0.000000,0.000000,0.000000,0.000000
1762435487359118,-39.268295,-0.000000,-0.000000,0.000000,0.000000,0.000000
1762435487369015,5.426829,0.000000,0.000000,0.000000,0.000000,0.000000
1762435487378913,25.975611,0.000000,0.000000,0.000000,0.000000,0.000000
1762435487388811,40.426830,0.000000,0.000000,0.000000,0.000000,0.000000
1762435487398710,0.426829,0.000000,0.000000,0.000000,0.000000,0.000000
1762435487408608,-43.719513,0.000000,0.000000,0.000000,0.000000,0.000000
1762435487418506,-29.817074,-0.000000,-0.000000,0.000000,0.000000,0.000000
1762435487428405,-20.914635,0.000000,0.000000,0.000000,0.000000,0.000000
1762435487438303,1.707317,0.000000,0.000000,0.000000,0.000000,0.000000
1762435487448201,62.317074,0.000000,0.000000,0.000000,0.000000,0.000000
1762435487458101,47.256100,0.000000,0.000000,0.000000,0.000000,0.000000
1762435487467998,-37.560978,-0.000000,-0.000000,0.000000,0.000000,0.000000
1762435487477896,-21.951220,-0.000000,-0.000000,0.000000,0.000000,0.000000
1762435487487795,-3.841464,-0.000000,-0.000000,0.000000,0.000000,0.000000
1762435487497693,-22.743902,0.000000,0.000000,0.000000,0.000000,0.000000
1762435487507592,14.451220,0.000000,0.000000,0.000000,0.000000,0.000000
1762435487517489,27.743902,0.000000,0.000000,0.000000,0.000000,0.000000
1762435487527388,-37.743904,0.000000,0.000000,0.000000,0.000000,0.000000
1762435487537286,-27.500000,-0.000000,-0.000000,0.000000,0.000000,0.000000
1762435487547184,25.731709,0.000000,0.000000,0.000000,0.000000,0.000000
1762435487557083,-22.012196,-0.000000,-0.000000,0.000000,0.000000,0.000000
1762435487566983,-5.426829,-0.000000,-0.000000,0.000000,0.000000,0.000000
1762435487576879,23.231709,0.000000,0.000000,0.000000,0.000000,0.000000
1762435487586778,-37.439026,-0.000000,-0.000000,0.000000,0.000000,0.000000
1762435487596676,-17.987804,-0.000000,-0.000000,0.000000,0.000000,0.000000
1762435487606574,12.500000,0.000000,0.000000,0.000000,0.000000,0.000000
1762435487616472,-3.902439,0.000000,0.000000,0.000000,0.000000,0.000000
1762435487626371,17.439024,0.000000,0.000000,0.000000,0.000000,0.000000
1762435487636269,0.060976,0.000000,0.000000,0.000000,0.000000,0.000000
1762435487646167,-43.414635,0.000000,0.000000,0.000000,0.000000,0.000000
1762435487656066,-9.268293,0.000000,0.000000,0.000000,0.000000,0.000000
1762435487665965,4.817073,0.000000,0.000000,0.000000,0.000000,0.000000
1762435487675863,-0.121951,0.000000,0.000000,0.000000,0.000000,0.000000
1762435487685761,23.719513,0.000000,0.000000,0.000000,0.000000,0.000000
1762435487695659,2.317073,0.000000,0.000000,0.000000,0.000000,0.000000
1762435487705558,-1.890244,-0.000000,-0.000000,0.000000,0.000000,0.000000
1762435487715456,27.865854,0.000000,0.000000,0.000000,0.000000,0.000000
1762435487725354,5.792683,0.000000,0.000000,0.000000,0.000000,0.000000
1762435487735252,-15.548780,0.000000,0.000000,0.000000,0.000000,0.000000
1762435487745151,-11.280488,-0.000000,-0.000000,0.000000,0.000000,0.000000
1762435487755049,-20.792683,-0.000000,-0.000000,0.000000,0.000000,0.000000
1762435487764947,0.914634,0.000000,0.000000,0.000000,0.000000,0.000000
1762435487774848,28.414635,0.000000,0.000000,0.000000,0.000000,0.000000
1762435487784744,0.914634,0.000000,0.000000,0.000000,0.000000,0.000000
1762435487794643,-19.695122,0.000000,0.000000,0.000000,0.000000,0.000000
1762435487804541,-24.878050,0.000000,0.000000,0.000000,0.000000,0.000000
1762435487814439,-28.048780,0.000000,0.000000,0.000000,0.000000,0.000000
1762435487824338,1.463415,0.000000,0.000000,0.000000,0.000000,0.000000
1762435487834236,10.121951,0.000000,0.000000,0.000000,0.000000,0.000000
1762435487844134,-14.390244,0.000000,0.000000,0.000000,0.000000,0.000000
1762435487854032,-23.170732,0.000000,0.000000,0.000000,0.000000,0.000000
1762435487863931,-27.865854,0.000000,0.000000,0.000000,0.000000,0.000000
1762435487873829,-7.865854,-0.000000,-0.000000,0.000000,0.000000,0.000000
1762435487883727,28.841465,0.000000,0.000000,0.000000,0.000000,0.000000
1762435487893627,38.658539,0.000000,0.000000,0.000000,0.000000,0.000000
1762435487903524,-19.451220,0.000000,0.000000,0.000000,0.000000,0.000000
1762435487913422,-8.719512,-0.000000,-0.000000,0.000000,0.000000,0.000000
1762435487923321,-11.219513,-0.000000,-0.000000,0.000000,0.000000,0.000000
1762435487933219,5.487805,0.000000,0.000000,0.000000,0.000000,0.000000
1762435487943118,91.585365,0.000000,0.000000,0.000000,0.000000,0.000000
1762435487953016,19.817074,0.000000,0.000000,0.000000,0.000000,0.000000
1762435487962915,-40.060978,-0.000000,-0.000000,0.000000,0.000000,0.000000
1762435487972812,-22.012196,-0.000000,-0.000000,0.000000,0.000000,0.000000
1762435487982711,-24.695122,-0.000000,-0.000000,0.000000,0.000000,0.000000
1762435487992610,25.182928,0.000000,0.000000,0.000000,0.000000,0.000000
1762435488002509,51.707317,0.000000,0.000000,0.000000,0.000000,0.000000
1762435488012406,-15.365854,0.000000,0.000000,0.000000,0.000000,0.000000
1762435488022305,-25.731709,-0.000000,-0.000000,0.000000,0.000000,0.000000
1762435488032202,-8.963415,0.000000,0.000000,0.000000,0.000000,0.000000
1762435488042100,-12.743903,0.000000,0.000000,0.000000,0.000000,0.000000
1762435488051998,11.951220,0.000000,0.000000,0.000000,0.000000,0.000000
1762435488061897,-17.134148,0.000000,0.000000,0.000000,0.000000,0.000000
1762435488071795,-44.390244,0.000000,0.000000,0.000000,0.000000,0.000000
1762435488081693,-2.500000,0.000000,0.000000,0.000000,0.000000,0.000000
1762435488091591,10.548780,0.000000,0.000000,0.000000,0.000000,0.000000
1762435488101491,5.914634,0.000000,0.000000,0.000000,0.000000,0.000000
1762435488111389,10.426829,0.000000,0.000000,0.000000,0.000000,0.000000
1762435488121288,-28.414635,-0.000000,-0.000000,0.000000,0.000000,0.000000
1762435488131185,-16.219513,-0.000000,-0.000000,0.000000,0.000000,0.000000
1762435488141084,26.951220,0.000000,0.000000,0.000000,0.000000,0.000000
1762435488150982,14.695123,0.000000,0.000000,0.000000,0.000000,0.000000
1762435488160880,15.060976,0.000000,0.000000,0.000000,0.000000,0.000000
1762435488170779,1.646342,0.000000,0.000000,0.000000,0.000000,0.000000
1762435488180677,-25.365854,-0.000000,-0.000000,0.000000,0.000000,0.000000
1762435488190575,4.939024,0.000000,0.000000,0.000000,0.000000,0.000000
1762435488200474,12.500000,0.000000,0.000000,0.000000,0.000000,0.000000
1762435488210374,-8.170732,0.000000,0.000000,0.000000,0.000000,0.000000
1762435488220270,-5.853659,0.000000,0.000000,0.000000,0.000000,0.000000
1762435488230169,-23.109756,0.000000,0.000000,0.000000,0.000000,0.000000
1762435488240067,-20.548780,0.000000,0.000000,0.000000,0.000000,0.000000
1762435488249965,8.536586,0.000000,0.000000,0.000000,0.000000,0.000000
1762435488259864,-3.658537,0.000000,0.000000,0.000000,0.000000,0.000000
1762435488269762,-15.365854,0.000000,0.000000,0.000000,0.000000,0.000000
1762435488279660,-13.658537,0.000000,0.000000,0.000000,0.000000,0.000000
1762435488289559,-18.963415,0.000000,0.000000,0.000000,0.000000,0.000000
1762435488299457,0.487805,0.000000,0.000000,0.000000,0.000000,0.000000
1762435488309355,13.841464,0.000000,0.000000,0.000000,0.000000,0.000000
1762435488319254,-2.682927,0.000000,0.000000,0.000000,0.000000,0.000000
1762435488329153,-7.621952,-0.000000,-0.000000,0.000000,0.000000,0.000000
1762435488339050,-3.475610,-0.000000,-0.000000,0.000000,0.000000,0.000000
1762435488348948,-0.914634,-0.000000,-0.000000,0.000000,0.000000,0.000000
1762435488358847,11.524390,0.000000,0.000000,0.000000,0.000000,0.000000
1762435488368745,8.109756,0.000000,0.000000,0.000000,0.000000,0.000000
1762435488378643,-4.817073,0.000000,0.000000,0.000000,0.000000,0.000000
1762435488388542,-2.256098,0.000000,0.000000,0.000000,0.000000,0.000000
1762435488398440,0.914634,0.000000,0.000000,0.000000,0.000000,0.000000
1762435488408338,8.353659,0.000000,0.000000,0.000000,0.000000,0.000000
1762435488418237,-6.219512,0.000000,0.000000,0.000000,0.000000,0.000000
1762435488428135,-15.365854,0.000000,0.000000,0.000000,0.000000,0.000000
1762435488438035,-8.170732,0.000000,0.000000,0.000000,0.000000,0.000000
1762435488447932,14.573171,0.000000,0.000000,0.000000,0.000000,0.000000
1762435488457830,38.902439,0.000000,0.000000,0.000000,0.000000,0.000000
1762435488467729,-10.426829,-0.000000,-0.000000,0.000000,0.000000,0.000000
1762435488477627,-20.182928,-0.000000,-0.000000,0.000000,0.000000,0.000000
1762435488487526,-11.219513,-0.000000,-0.000000,0.000000,0.000000,0.000000
1762435488497423,2.195122,0.000000,0.000000,0.000000,0.000000,0.000000
1762435488507321,45.853661,0.000000,0.000000,0.000000,0.000000,0.000000
1762435488517220,8.048780,0.000000,0.000000,0.000000,0.000000,0.000000
1762435488527118,-26.463415,-0.000000,-0.000000,0.000000,0.000000,0.000000
1762435488537017,-2.378049,-0.000000,-0.000000,0.000000,0.000000,0.000000
1762435488546915,-1.463415,-0.000000,-0.000000,0.000000,0.000000,0.000000
1762435488556814,26.280489,0.000000,0.000000,0.000000,0.000000,0.000000
1762435488566712,29.329269,0.000000,0.000000,0.000000,0.000000,0.000000
1762435488576610,-10.548780,-0.000000,-0.000000,0.000000,0.000000,0.000000
1762435488586509,-26.707317,-0.000000,-0.000000,0.000000,0.000000,0.000000
1762435488596407,-1.341463,0.000000,0.000000,0.000000,0.000000,0.000000
1762435488606305,-5.792683,0.000000,0.000000,0.000000,0.000000,0.000000
1762435488616203,8.719512,0.000000,0.000000,0.000000,0.000000,0.000000
1762435488626102,5.243903,0.000000,0.000000,0.000000,0.000000,0.000000
1762435488636000,-27.012196,-0.000000,-0.000000,0.000000,0.000000,0.000000
1762435488645901,0.670732,0.000000,0.000000,0.000000,0.000000,0.000000
1762435488655797,6.463415,0.000000,0.000000,0.000000,0.000000,0.000000
1762435488665696,-2.012195,0.000000,0.000000,0.000000,0.000000,0.000000
1762435488675594,13.414635,0.000000,0.000000,0.000000,0.000000,0.000000
1762435488685492,-12.743903,-0.000000,-0.000000,0.000000,0.000000,0.000000
1762435488695390,-10.182927,-0.000000,-0.000000,0.000000,0.000000,0.000000
1762435488705288,15.731708,0.000000,0.000000,0.000000,0.000000,0.000000
1762435488715187,-0.121951,0.000000,0.000000,0.000000,0.000000,0.000000
1762435488725085,-0.487805,0.000000,0.000000,0.000000,0.000000,0.000000
1762435488734983,-6.951220,-0.000000,-0.000000,0.000000,0.000000,0.000000
1762435488744882,-19.146341,-0.000000,-0.000000,0.000000,0.000000,0.000000
1762435488754780,12.682927,0.000000,0.000000,0.000000,0.000000,0.000000
1762435488764680,17.317074,0.000000,0.000000,0.000000,0.000000,0.000000
1762435488774577,-0.609756,0.000000,0.000000,0.000000,0.000000,0.000000
1762435488784475,-5.365854,0.000000,0.000000,0.000000,0.000000,0.000000
1762435488794374,-22.621952,0.000000,0.000000,0.000000,0.000000,0.000000
1762435488804272,-14.878049,0.000000,0.000000,0.000000,0.000000,0.000000
1762435488814170,10.365854,0.000000,0.000000,0.000000,0.000000,0.000000
1762435488824068,1.951220,0.000000,0.000000,0.000000,0.000000,0.000000
1762435488833967,0.182927,0.000000,0.000000,0.000000,0.000000,0.000000
1762435488843865,1.951220,0.000000,0.000000,0.000000,0.000000,0.000000
1762435488853763,-5.609756,0.000000,0.000000,0.000000,0.000000,0.000000
1762435488863662,4.756098,0.000000,0.000000,0.000000,0.000000,0.000000
1762435488873561,1.768293,0.000000,0.000000,0.000000,0.000000,0.000000
1762435488883458,-10.304878,0.000000,0.000000,0.000000,0.000000,0.000000
1762435488893357,-4.024390,-0.000000,-0.000000,0.000000,0.000000,0.000000
1762435488903255,2.195122,0.000000,0.000000,0.000000,0.000000,0.000000
1762435488913153,4.939024,0.000000,0.000000,0.000000,0.000000,0.000000
1762435488923052,13.475610,0.000000,0.000000,0.000000,0.000000,0.000000
1762435488932950,-0.548781,0.000000,0.000000,0.000000,0.000000,0.000000
1762435488942848,-11.890244,0.000000,0.000000,0.000000,0.000000,0.000000
1762435488952747,-5.365854,0.000000,0.000000,0.000000,0.000000,0.000000
1762435488962645,-9.451220,0.000000,0.000000,0.000000,0.000000,0.000000
1762435488972543,-4.695122,0.000000,0.000000,0.000000,0.000000,0.000000
1762435488982442,0.792683,0.000000,0.000000,0.000000,0.000000,0.000000
1762435488992340,-8.597561,0.000000,0.000000,0.000000,0.000000,0.000000
1762435489002238,-0.365854,0.000000,0.000000,0.000000,0.000000,0.000000
1762435489012137,5.914634,0.000000,0.000000,0.000000,0.000000,0.000000
1762435489022035,-2.439024,0.000000,0.000000,0.000000,0.000000,0.000000
1762435489031933,-4.573171,0.000000,0.000000,0.000000,0.000000,0.000000
1762435489041832,-11.890244,0.000000,0.000000,0.000000,0.000000,0.000000
1762435489051730,-15.243903,0.000000,0.000000,0.000000,0.000000,0.000000
1762435489061628,1.951220,0.000000,0.000000,0.000000,0.000000,0.000000
1762435489071527,6.219512,0.000000,0.000000,0.000000,0.000000,0.000000
1762435489081427,0.670732,0.000000,0.000000,0.000000,0.000000,0.000000
1762435489091323,1.829268,0.000000,0.000000,0.000000,0.000000,0.000000
1762435489101223,-6.524390,0.000000,0.000000,0.000000,0.000000,0.000000
1762435489111120,-5.243903,0.000000,0.000000,0.000000,0.000000,0.000000
1762435489121018,6.219512,0.000000,0.000000,0.000000,0.000000,0.000000
1762435489130916,1.829268,0.000000,0.000000,0.000000,0.000000,0.000000
1762435489140815,16.829269,0.000000,0.000000,0.000000,0.000000,0.000000
1762435489150713,46.768295,0.000000,0.000000,0.000000,0.000000,0.000000
1762435489160611,50.670734,0.000000,0.000000,0.000000,0.000000,0.000000
1762435489170511,52.439026,0.000000,0.000000,0.000000,0.000000,0.000000
1762435489180408,35.670734,0.000000,0.000000,0.000000,0.000000,0.000000
1762435489190307,10.121951,0.000000,0.000000,0.000000,0.000000,0.000000
1762435489200206,19.085367,0.000000,0.000000,0.000000,0.000000,0.000000
1762435489210103,37.500000,0.000000,0.000000,0.000000,0.000000,0.000000
1762435489220001,28.597561,0.000000,0.000000,0.000000,0.000000,0.000000
1762435489229900,7.073171,0.000000,0.000000,0.000000,0.000000,0.000000
1762435489239798,-11.890244,-0.000000,-0.000000,0.000000,0.000000,0.000000
1762435489249696,13.841464,0.000000,0.000000,0.000000,0.000000,0.000000
1762435489259595,79.756096,0.000000,0.000000,0.000000,0.000000,0.000000
1762435489269493,97.926834,0.000000,0.000000,0.000000,0.000000,0.000000
1762435489279392,71.402443,0.000000,0.000000,0.000000,0.000000,0.000000
1762435489289290,2.500000,0.000000,0.000000,0.000000,0.000000,0.000000
1762435489299188,-31.341465,0.000000,0.000000,0.000000,0.000000,0.000000
1762435489309088,40.060978,0.000000,0.000000,0.000000,0.000000,0.000000
1762435489318985,98.902443,0.000000,0.000000,0.000000,0.000000,0.000000
1762435489328883,68.658539,0.000000,0.000000,0.000000,0.000000,0.000000
1762435489338781,0.853659,0.000000,0.000000,0.000000,0.000000,0.000000
1762435489348679,-29.329269,0.000000,0.000000,0.000000,0.000000,0.000000
1762435489358578,16.585365,0.000000,0.000000,0.000000,0.000000,0.000000
1762435489368476,58.048782,0.000000,0.000000,0.000000,0.000000,0.000000
1762435489378375,8.658537,0.000000,0.000000,0.000000,0.000000,0.000000
1762435489388273,-56.158539,0.000000,0.000000,0.000000,0.000000,0.000000
1762435489398171,-23.597561,0.000000,0.000000,0.000000,0.000000,0.000000
1762435489408070,43.231709,0.000000,0.000000,0.000000,0.000000,0.000000
1762435489417967,39.085365,0.000000,0.000000,0.000000,0.000000,0.000000
1762435489427867,-8.231708,0.000000,0.000000,0.000000,0.000000,0.000000
1762435489437765,-30.975611,0.000000,0.000000,0.000000,0.000000,0.000000
1762435489447663,13.170732,0.000000,0.000000,0.000000,0.000000,0.000000
1762435489457562,49.695122,0.000000,0.000000,0.000000,0.000000,0.000000
1762435489467460,14.939025,0.000000,0.000000,0.000000,0.000000,0.000000
1762435489477358,-21.646341,-0.000000,-0.000000,0.000000,0.000000,0.000000
1762435489487256,-3.048780,0.000000,0.000000,0.000000,0.000000,0.000000
1762435489497155,30.487806,0.000000,0.000000,0.000000,0.000000,0.000000
1762435489507053,14.939025,0.000000,0.000000,0.000000,0.000000,0.000000
1762435489516953,-26.524391,0.000000,0.000000,0.000000,0.000000,0.000000
1762435489526849,-34.085365,0.000000,0.000000,0.000000,0.000000,0.000000
1762435489536749,-3.719512,0.000000,0.000000,0.000000,0.000000,0.000000
1762435489546646,22.804878,0.000000,0.000000,0.000000,0.000000,0.000000
1762435489556545,2.195122,0.000000,0.000000,0.000000,0.000000,0.000000
1762435489566443,-50.121952,0.000000,0.000000,0.000000,0.000000,0.000000
1762435489576341,-31.585367,0.000000,0.000000,0.000000,0.000000,0.000000
1762435489586240,17.987804,0.000000,0.000000,0.000000,0.000000,0.000000
1762435489596138,5.731708,0.000000,0.000000,0.000000,0.000000,0.000000
1762435489606036,-39.268295,0.000000,0.000000,0.000000,0.000000,0.000000
1762435489615935,-66.524391,-0.000000,-0.000000,0.000000,0.000000,0.000000
1762435489625833,-43.902439,-0.000000,-0.000000,0.000000,0.000000,0.000000
1762435489635732,12.865854,0.000000,0.000000,0.000000,0.000000,0.000000
1762435489645630,14.756098,0.000000,0.000000,0.000000,0.000000,0.000000
1762435489655528,-41.158539,0.000000,0.000000,0.000000,0.000000,0.000000
1762435489665426,-67.743904,-0.000000,-0.000000,0.000000,0.000000,0.000000
1762435489675325,-41.097561,0.000000,0.000000,0.000000,0.000000,0.000000
1762435489685223,-7.317073,0.000000,0.000000,0.000000,0.000000,0.000000
1762435489695121,-0.670732,0.000000,0.000000,0.000000,0.000000,0.000000
1762435489705019,-28.597561,0.000000,0.000000,0.000000,0.000000,0.000000
1762435489714918,-55.853661,0.000000,0.000000,0.000000,0.000000,0.000000
1762435489724816,-29.817074,0.000000,0.000000,0.000000,0.000000,0.000000
1762435489734715,13.597561,0.000000,0.000000,0.000000,0.000000,0.000000
1762435489744615,7.987805,0.000000,0.000000,0.000000,0.000000,0.000000
1762435489754511,-30.304878,0.000000,0.000000,0.000000,0.000000,0.000000
1762435489764410,-40.000000,-0.000000,-0.000000,0.000000,0.000000,0.000000
1762435489774308,-22.804878,0.000000,0.000000,0.000000,0.000000,0.000000
1762435489784206,18.414635,0.000000,0.000000,0.000000,0.000000,0.000000
1762435489794104,39.512196,0.000000,0.000000,0.000000,0.000000,0.000000
1762435489804003,-4.024390,0.000000,0.000000,0.000000,0.000000,0.000000
1762435489813901,-37.439026,-0.000000,-0.000000,0.000000,0.000000,0.000000
1762435489823800,-20.060976,0.000000,0.000000,0.000000,0.000000,0.000000
1762435489833698,-2.195122,0.000000,0.000000,0.000000,0.000000,0.000000
1762435489843597,15.548780,0.000000,0.000000,0.000000,0.000000,0.000000
1762435489853495,24.817074,0.000000,0.000000,0.000000,0.000000,0.000000
1762435489863394,5.792683,0.000000,0.000000,0.000000,0.000000,0.000000
1762435489873292,-3.292683,0.000000,0.000000,0.000000,0.000000,0.000000
1762435489883190,2.743902,0.000000,0.000000,0.000000,0.000000,0.000000
1762435489893088,25.853659,0.000000,0.000000,0.000000,0.000000,0.000000
1762435489902988,14.085366,0.000000,0.000000,0.000000,0.000000,0.000000
1762435489912886,3.231707,0.000000,0.000000,0.000000,0.000000,0.000000
1762435489922783,-7.987805,0.000000,0.000000,0.000000,0.000000,0.000000
1762435489932682,-21.768293,0.000000,0.000000,0.000000,0.000000,0.000000
1762435489942580,10.487805,0.000000,0.000000,0.000000,0.000000,0.000000
1762435489952481,26.402439,0.000000,0.000000,0.000000,0.000000,0.000000
1762435489962376,1.280488,0.000000,0.000000,0.000000,0.000000,0.000000
1762435489972275,-9.939025,0.000000,0.000000,0.000000,0.000000,0.000000
1762435489982174,-12.500000,0.000000,0.000000,0.000000,0.000000,0.000000
1762435489992072,-12.317074,0.000000,0.000000,0.000000,0.000000,0.000000
1762435490001970,14.573171,0.000000,0.000000,0.000000,0.000000,0.000000
1762435490011868,14.024390,0.000000,0.000000,0.000000,0.000000,0.000000
1762435490021767,-14.207317,0.000000,0.000000,0.000000,0.000000,0.000000
1762435490031665,-9.024390,-0.000000,-0.000000,0.000000,0.000000,0.000000
1762435490041563,4.817073,0.000000,0.000000,0.000000,0.000000,0.000000
1762435490051461,5.853659,0.000000,0.000000,0.000000,0.000000,0.000000
1762435490061360,6.585366,0.000000,0.000000,0.000000,0.000000,0.000000
1762435490071259,-2.012195,-0.000000,-0.000000,0.000000,0.000000,0.000000
1762435490081156,-15.365854,0.000000,0.000000,0.000000,0.000000,0.000000
1762435490091055,2.743902,0.000000,0.000000,0.000000,0.000000,0.000000
1762435490100953,20.731709,0.000000,0.000000,0.000000,0.000000,0.000000
1762435490110851,-3.414634,0.000000,0.000000,0.000000,0.000000,0.000000
1762435490120750,-18.719513,-0.000000,-0.000000,0.000000,0.000000,0.000000
1762435490130648,-19.024391,-0.000000,-0.000000,0.000000,0.000000,0.000000
1762435490140547,-20.853659,0.000000,0.000000,0.000000,0.000000,0.000000
1762435490150445,2.682927,0.000000,0.000000,0.000000,0.000000,0.000000
1762435490160343,14.573171,0.000000,0.000000,0.000000,0.000000,0.000000
1762435490170241,-7.134147,0.000000,0.000000,0.000000,0.000000,0.000000
1762435490180141,-8.597561,0.000000,0.000000,0.000000,0.000000,0.000000
1762435490190038,5.121951,0.000000,0.000000,0.000000,0.000000,0.000000
1762435490199937,5.853659,0.000000,0.000000,0.000000,0.000000,0.000000
1762435490209834,12.317074,0.000000,0.000000,0.000000,0.000000,0.000000
1762435490219733,10.426829,0.000000,0.000000,0.000000,0.000000,0.000000
1762435490229631,-4.756098,0.000000,0.000000,0.000000,0.000000,0.000000
1762435490239529,3.841464,0.000000,0.000000,0.000000,0.000000,0.000000
1762435490249428,19.146341,0.000000,0.000000,0.000000,0.000000,0.000000
1762435490259326,8.109756,0.000000,0.000000,0.000000,0.000000,0.000000
1762435490269224,-6.463415,0.000000,0.000000,0.000000,0.000000,0.000000
1762435490279123,-15.792684,0.000000,0.000000,0.000000,0.000000,0.000000
1762435490289021,-18.963415,0.000000,0.000000,0.000000,0.000000,0.000000
1762435490298920,-4.817073,0.000000,0.000000,0.000000,0.000000,0.000000
1762435490308818,8.536586,0.000000,0.000000,0.000000,0.000000,0.000000
1762435490318716,2.500000,0.000000,0.000000,0.000000,0.000000,0.000000
1762435490328615,-0.304878,0.000000,0.000000,0.000000,0.000000,0.000000
1762435490338514,3.658537,0.000000,0.000000,0.000000,0.000000,0.000000
1762435490348412,4.390244,0.000000,0.000000,0.000000,0.000000,0.000000
1762435490358310,15.731708,0.000000,0.000000,0.000000,0.000000,0.000000
1762435490368208,17.987804,0.000000,0.000000,0.000000,0.000000,0.000000
1762435490378106,7.134147,0.000000,0.000000,0.000000,0.000000,0.000000
1762435490388007,7.560976,0.000000,0.000000,0.000000,0.000000,0.000000
1762435490397903,7.743903,0.000000,0.000000,0.000000,0.000000,0.000000
1762435490407803,2.621951,0.000000,0.000000,0.000000,0.000000,0.000000
1762435490417700,1.219512,0.000000,0.000000,0.000000,0.000000,0.000000
1762435490427598,-5.853659,0.000000,0.000000,0.000000,0.000000,0.000000
1762435490437497,-20.060976,0.000000,0.000000,0.000000,0.000000,0.000000
1762435490447395,-20.365854,0.000000,0.000000,0.000000,0.000000,0.000000
1762435490457293,-10.000000,0.000000,0.000000,0.000000,0.000000,0.000000
1762435490467191,-4.573171,0.000000,0.000000,0.000000,0.000000,0.000000
1762435490477090,3.963415,0.000000,0.000000,0.000000,0.000000,0.000000
1762435490486988,11.646341,0.000000,0.000000,0.000000,0.000000,0.000000
1762435490496886,3.841464,0.000000,0.000000,0.000000,0.000000,0.000000
1762435490506787,7.500000,0.000000,0.000000,0.000000,0.000000,0.000000
1762435490516683,26.707317,0.000000,0.000000,0.000000,0.000000,0.000000
1762435490526581,25.000000,0.000000,0.000000,0.000000,0.000000,0.000000
1762435490536480,10.731708,0.000000,0.000000,0.000000,0.000000,0.000000
1762435490546378,-3.475610,0.000000,0.000000,0.000000,0.000000,0.000000
1762435490556276,-16.341463,0.000000,0.000000,0.000000,0.000000,0.000000
1762435490566174,-10.792684,0.000000,0.000000,0.000000,0.000000,0.000000
1762435490576073,-0.243902,0.000000,0.000000,0.000000,0.000000,0.000000
1762435490585971,-11.768293,0.000000,0.000000,0.000000,0.000000,0.000000
1762435490595870,-22.682928,0.000000,0.000000,0.000000,0.000000,0.000000
1762435490605768,-12.682927,0.000000,0.000000,0.000000,0.000000,0.000000
1762435490615668,0.914634,0.000000,0.000000,0.000000,0.000000,0.000000
1762435490625565,8.170732,0.000000,0.000000,0.000000,0.000000,0.000000
1762435490635463,6.219512,0.000000,0.000000,0.000000,0.000000,0.000000
1762435490645361,-7.682927,0.000000,0.000000,0.000000,0.000000,0.000000
1762435490655260,-8.353659,0.000000,0.000000,0.000000,0.000000,0.000000
1762435490665158,11.463415,0.000000,0.000000,0.000000,0.000000,0.000000
1762435490675056,20.426830,0.000000,0.000000,0.000000,0.000000,0.000000
1762435490684954,12.134147,0.000000,0.000000,0.000000,0.000000,0.000000
1762435490694853,-0.548781,0.000000,0.000000,0.000000,0.000000,0.000000
1762435490704751,-11.768293,-0.000000,-0.000000,0.000000,0.000000,0.000000
1762435490714649,-7.256098,0.000000,0.000000,0.000000,0.000000,0.000000
1762435490724548,3.353659,0.000000,0.000000,0.000000,0.000000,0.000000
1762435490734447,-5.304878,0.000000,0.000000,0.000000,0.000000,0.000000
1762435490744344,-18.780489,0.000000,0.000000,0.000000,0.000000,0.000000
1762435490754243,-15.670732,0.000000,0.000000,0.000000,0.000000,0.000000
1762435490764141,-5.182927,0.000000,0.000000,0.000000,0.000000,0.000000
1762435490774040,5.121951,0.000000,0.000000,0.000000,0.000000,0.000000
1762435490783938,8.475610,0.000000,0.000000,0.000000,0.000000,0.000000
1762435490793836,-3.902439,0.000000,0.000000,0.000000,0.000000,0.000000
1762435490803735,-12.012196,0.000000,0.000000,0.000000,0.000000,0.000000
1762435490813633,0.548781,0.000000,0.000000,0.000000,0.000000,0.000000
1762435490823534,11.646341,0.000000,0.000000,0.000000,0.000000,0.000000
1762435490833430,10.853659,0.000000,0.000000,0.000000,0.000000,0.000000
1762435490843329,5.182927,0.000000,0.000000,0.000000,0.000000,0.000000
1762435490853226,-3.658537,-0.000000,-0.000000,0.000000,0.000000,0.000000
1762435490863125,-1.951220,0.000000,0.000000,0.000000,0.000000,0.000000
1762435490873023,8.109756,0.000000,0.000000,0.000000,0.000000,0.000000
1762435490882921,4.695122,0.000000,0.000000,0.000000,0.000000,0.000000
1762435490892820,-6.890244,0.000000,0.000000,0.000000,0.000000,0.000000
1762435490902718,-10.792684,0.000000,0.000000,0.000000,0.000000,0.000000
1762435490912616,-6.768293,0.000000,0.000000,0.000000,0.000000,0.000000
1762435490922514,0.304878,0.000000,0.000000,0.000000,0.000000,0.000000
1762435490932413,5.548780,0.000000,0.000000,0.000000,0.000000,0.000000
1762435490942313,2.195122,0.000000,0.000000,0.000000,0.000000,0.000000
1762435490952210,-3.841464,0.000000,0.000000,0.000000,0.000000,0.000000
1762435490962108,-1.951220,0.000000,0.000000,0.000000,0.000000,0.000000
1762435490972006,4.573171,0.000000,0.000000,0.000000,0.000000,0.000000
1762435490981907,4.634147,0.000000,0.000000,0.000000,0.000000,0.000000
1762435490991803,3.719512,0.000000,0.000000,0.000000,0.000000,0.000000
1762435491001701,11.646341,0.000000,0.000000,0.000000,0.000000,0.000000
1762435491011600,16.890244,0.000000,0.000000,0.000000,0.000000,0.000000
1762435491021498,16.829269,0.000000,0.000000,0.000000,0.000000,0.000000
1762435491031396,9.939025,0.000000,0.000000,0.000000,0.000000,0.000000
1762435491041294,-0.853659,0.000000,0.000000,0.000000,0.000000,0.000000
1762435491051195,-1.402439,0.000000,0.000000,0.000000,0.000000,0.000000
1762435491061091,3.841464,0.000000,0.000000,0.000000,0.000000,0.000000
1762435491070990,0.853659,0.000000,0.000000,0.000000,0.000000,0.000000
1762435491080888,-2.926829,0.000000,0.000000,0.000000,0.000000,0.000000
1762435491090786,6.707317,0.000000,0.000000,0.000000,0.000000,0.000000
1762435491100685,-5.000000,0.000000,0.000000,0.000000,0.000000,0.000000
1762435491110583,9.878049,0.000000,0.000000,0.000000,0.000000,0.000000
1762435491120481,28.719513,0.000000,0.000000,0.000000,0.000000,0.000000
1762435491130379,24.268293,0.000000,0.000000,0.000000,0.000000,0.000000
1762435491140278,15.609756,0.000000,0.000000,0.000000,0.000000,0.000000
1762435491150176,10.609756,0.000000,0.000000,0.000000,0.000000,0.000000
1762435491160074,12.682927,0.000000,0.000000,0.000000,0.000000,0.000000
1762435491169974,26.280489,0.000000,0.000000,0.000000,0.000000,0.000000
1762435491179871,17.378050,0.000000,0.000000,0.000000,0.000000,0.000000
1762435491189770,-10.487805,0.000000,0.000000,0.000000,0.000000,0.000000
1762435491199668,-6.402439,0.000000,0.000000,0.000000,0.000000,0.000000
1762435491209566,19.024391,0.000000,0.000000,0.000000,0.000000,0.000000
1762435491219466,13.719513,0.000000,0.000000,0.000000,0.000000,0.000000
1762435491229363,-9.390244,0.000000,0.000000,0.000000,0.000000,0.000000
1762435491239262,-16.585365,0.000000,0.000000,0.000000,0.000000,0.000000
1762435491249160,-1.280488,0.000000,0.000000,0.000000,0.000000,0.000000
1762435491259058,28.475611,0.000000,0.000000,0.000000,0.000000,0.000000
1762435491268956,23.231709,0.000000,0.000000,0.000000,0.000000,0.000000
1762435491278856,-5.975610,-0.000000,-0.000000,0.000000,0.000000,0.000000
1762435491288754,-2.378049,-0.000000,-0.000000,0.000000,0.000000,0.000000
1762435491298651,22.439026,0.000000,0.000000,0.000000,0.000000,0.000000
1762435491308550,24.817074,0.000000,0.000000,0.000000,0.000000,0.000000
1762435491318448,5.731708,0.000000,0.000000,0.000000,0.000000,0.000000
1762435491328346,-14.024390,0.000000,0.000000,0.000000,0.000000,0.000000
1762435491338245,-4.146341,0.000000,0.000000,0.000000,0.000000,0.000000
1762435491348143,18.536587,0.000000,0.000000,0.000000,0.000000,0.000000
1762435491358042,7.439024,0.000000,0.000000,0.000000,0.000000,0.000000
1762435491367940,-22.926830,0.000000,0.000000,0.000000,0.000000,0.000000
1762435491377838,-27.500000,0.000000,0.000000,0.000000,0.000000,0.000000
1762435491387736,-0.731707,0.000000,0.000000,0.000000,0.000000,0.000000
1762435491397635,16.219513,0.000000,0.000000,0.000000,0.000000,0.000000
1762435491407533,6.646342,0.000000,0.000000,0.000000,0.000000,0.000000
1762435491417431,-10.000000,-0.000000,-0.000000,0.000000,0.000000,0.000000
1762435491427330,-7.560976,-0.000000,-0.000000,0.000000,0.000000,0.000000
1762435491437228,14.634147,0.000000,0.000000,0.000000,0.000000,0.000000
1762435491447126,19.756098,0.000000,0.000000,0.000000,0.000000,0.000000
1762435491457025,-5.609756,0.000000,0.000000,0.000000,0.000000,0.000000
1762435491466923,-24.024391,-0.000000,-0.000000,0.000000,0.000000,0.000000
1762435491476821,-11.402439,-0.000000,-0.000000,0.000000,0.000000,0.000000
1762435491486722,6.280488,0.000000,0.000000,0.000000,0.000000,0.000000
1762435491496618,3.536585,0.000000,0.000000,0.000000,0.000000,0.000000
1762435491506517,-12.926829,0.000000,0.000000,0.000000,0.000000,0.000000
1762435491516415,-22.560976,0.000000,0.000000,0.000000,0.000000,0.000000
1762435491526313,-6.524390,0.000000,0.000000,0.000000,0.000000,0.000000
1762435491536211,15.853659,0.000000,0.000000,0.000000,0.000000,0.000000
1762435491546109,12.560976,0.000000,0.000000,0.000000,0.000000,0.000000
1762435491556008,0.853659,0.000000,0.000000,0.000000,0.000000,0.000000
1762435491565906,7.865854,0.000000,0.000000,0.000000,0.000000,0.000000
1762435491575804,24.695122,0.000000,0.000000,0.000000,0.000000,0.000000
1762435491585703,18.841463,0.000000,0.000000,0.000000,0.000000,0.000000
1762435491595601,8.475610,0.000000,0.000000,0.000000,0.000000,0.000000
1762435491605501,-4.024390,0.000000,0.000000,0.000000,0.000000,0.000000
1762435491615398,-1.890244,0.000000,0.000000,0.000000,0.000000,0.000000
1762435491625296,10.548780,0.000000,0.000000,0.000000,0.000000,0.000000
1762435491635195,2.134146,0.000000,0.000000,0.000000,0.000000,0.000000
1762435491645093,-16.646341,0.000000,0.000000,0.000000,0.000000,0.000000
1762435491654992,-14.207317,0.000000,0.000000,0.000000,0.000000,0.000000
1762435491664890,1.402439,0.000000,0.000000,0.000000,0.000000,0.000000
1762435491674788,10.000000,0.000000,0.000000,0.000000,0.000000,0.000000
1762435491684686,2.134146,0.000000,0.000000,0.000000,0.000000,0.000000
1762435491694585,-13.414635,-0.000000,-0.000000,0.000000,0.000000,0.000000
1762435491704483,-15.487805,0.000000,0.000000,0.000000,0.000000,0.000000
1762435491714384,-2.682927,0.000000,0.000000,0.000000,0.000000,0.000000
1762435491724280,5.487805,0.000000,0.000000,0.000000,0.000000,0.000000
1762435491734180,-6.707317,0.000000,0.000000,0.000000,0.000000,0.000000
1762435491744077,-27.987806,-0.000000,-0.000000,0.000000,0.000000,0.000000
1762435491753975,-33.658539,-0.000000,-0.000000,0.000000,0.000000,0.000000
1762435491763873,-19.390244,-0.000000,-0.000000,0.000000,0.000000,0.000000
1762435491773771,-1.280488,0.000000,0.000000,0.000000,0.000000,0.000000
1762435491783670,0.487805,0.000000,0.000000,0.000000,0.000000,0.000000
1762435491793568,-14.024390,0.000000,0.000000,0.000000,0.000000,0.000000
1762435491803466,-23.963415,0.000000,0.000000,0.000000,0.000000,0.000000
1762435491813364,-13.658537,-0.000000,-0.000000,0.000000,0.000000,0.000000
1762435491823263,0.670732,0.000000,0.000000,0.000000,0.000000,0.000000
1762435491833162,0.975610,0.000000,0.000000,0.000000,0.000000,0.000000
1762435491843060,-8.475610,0.000000,0.000000,0.000000,0.000000,0.000000
1762435491852958,-9.939025,0.000000,0.000000,0.000000,0.000000,0.000000
1762435491862856,1.219512,0.000000,0.000000,0.000000,0.000000,0.000000
1762435491872755,12.804878,0.000000,0.000000,0.000000,0.000000,0.000000
1762435491882653,11.280488,0.000000,0.000000,0.000000,0.000000,0.000000
1762435491892552,-8.658537,0.000000,0.000000,0.000000,0.000000,0.000000
1762435491902449,-23.414635,-0.000000,-0.000000,0.000000,0.000000,0.000000
1762435491912349,-16.707317,-0.000000,-0.000000,0.000000,0.000000,0.000000
1762435491922249,4.939024,0.000000,0.000000,0.000000,0.000000,0.000000
1762435491932144,21.402439,0.000000,0.000000,0.000000,0.000000,0.000000
1762435491942044,5.487805,0.000000,0.000000,0.000000,0.000000,0.000000
1762435491951941,-17.500000,0.000000,0.000000,0.000000,0.000000,0.000000
1762435491961840,-14.085366,-0.000000,-0.000000,0.000000,0.000000,0.000000
1762435491971738,2.987805,0.000000,0.000000,0.000000,0.000000,0.000000
1762435491981636,7.621952,0.000000,0.000000,0.000000,0.000000,0.000000
1762435491991534,-4.024390,0.000000,0.000000,0.000000,0.000000,0.000000
1762435492001433,-11.707317,0.000000,0.000000,0.000000,0.000000,0.000000
1762435492011332,0.975610,0.000000,0.000000,0.000000,0.000000,0.000000
1762435492021229,20.121952,0.000000,0.000000,0.000000,0.000000,0.000000
1762435492031128,20.000000,0.000000,0.000000,0.000000,0.000000,0.000000
1762435492041026,-1.402439,0.000000,0.000000,0.000000,0.000000,0.000000
1762435492050924,-22.865854,0.000000,0.000000,0.000000,0.000000,0.000000
1762435492060823,-20.000000,0.000000,0.000000,0.000000,0.000000,0.000000
1762435492070721,0.975610,0.000000,0.000000,0.000000,0.000000,0.000000
1762435492080620,12.865854,0.000000,0.000000,0.000000,0.000000,0.000000
1762435492090519,4.451220,0.000000,0.000000,0.000000,0.000000,0.000000
1762435492100416,-10.304878,0.000000,0.000000,0.000000,0.000000,0.000000
1762435492110315,-10.975610,0.000000,0.000000,0.000000,0.000000,0.000000
1762435492120213,1.036585,0.000000,0.000000,0.000000,0.000000,0.000000
1762435492130112,5.182927,0.000000,0.000000,0.000000,0.000000,0.000000
1762435492140010,-5.060976,0.000000,0.000000,0.000000,0.000000,0.000000
1762435492149910,-12.560976,-0.000000,-0.000000,0.000000,0.000000,0.000000
1762435492159806,-5.853659,0.000000,0.000000,0.000000,0.000000,0.000000
1762435492169707,7.682927,0.000000,0.000000,0.000000,0.000000,0.000000
1762435492179604,11.158537,0.000000,0.000000,0.000000,0.000000,0.000000
1762435492189501,-2.621951,0.000000,0.000000,0.000000,0.000000,0.000000
1762435492199400,-21.280489,0.000000,0.000000,0.000000,0.000000,0.000000
1762435492209298,-24.634148,0.000000,0.000000,0.000000,0.000000,0.000000
1762435492219196,-7.134147,0.000000,0.000000,0.000000,0.000000,0.000000
1762435492229095,9.207317,0.000000,0.000000,0.000000,0.000000,0.000000
1762435492238993,8.231708,0.000000,0.000000,0.000000,0.000000,0.000000
1762435492248892,-3.170732,0.000000,0.000000,0.000000,0.000000,0.000000
1762435492258790,-10.792684,0.000000,0.000000,0.000000,0.000000,0.000000
1762435492268689,-7.743903,0.000000,0.000000,0.000000,0.000000,0.000000
1762435492278586,0.000000,0.000000,0.000000,0.000000,0.000000,0.000000
1762435492288485,-2.012195,0.000000,0.000000,0.000000,0.000000,0.000000
1762435492298383,-10.792684,-0.000000,-0.000000,0.000000,0.000000,0.000000
1762435492308281,-7.500000,0.000000,0.000000,0.000000,0.000000,0.000000
1762435492318180,4.878049,0.000000,0.000000,0.000000,0.000000,0.000000
1762435492328078,10.426829,0.000000,0.000000,0.000000,0.000000,0.000000
1762435492337976,6.097561,0.000000,0.000000,0.000000,0.000000,0.000000
1762435492347875,-4.329268,0.000000,0.000000,0.000000,0.000000,0.000000
1762435492357773,-11.768293,0.000000,0.000000,0.000000,0.000000,0.000000
1762435492367672,-3.719512,0.000000,0.000000,0.000000,0.000000,0.000000
1762435492377571,4.146341,0.000000,0.000000,0.000000,0.000000,0.000000
1762435492387468,2.926829,0.000000,0.000000,0.000000,0.000000,0.000000
1762435492397367,5.975610,0.000000,0.000000,0.000000,0.000000,0.000000
1762435492407265,7.743903,0.000000,0.000000,0.000000,0.000000,0.000000
1762435492417163,-9.329268,0.000000,0.000000,0.000000,0.000000,0.000000
1762435492427061,-17.317074,0.000000,0.000000,0.000000,0.000000,0.000000
1762435492436960,-3.475610,0.000000,0.000000,0.000000,0.000000,0.000000
1762435492446858,5.792683,0.000000,0.000000,0.000000,0.000000,0.000000
1762435492456756,3.231707,0.000000,0.000000,0.000000,0.000000,0.000000
1762435492466655,-0.243902,0.000000,0.000000,0.000000,0.000000,0.000000
1762435492476553,-1.402439,0.000000,0.000000,0.000000,0.000000,0.000000
1762435492486451,7.621952,0.000000,0.000000,0.000000,0.000000,0.000000
1762435492496350,12.439025,0.000000,0.000000,0.000000,0.000000,0.000000
1762435492506248,-5.609756,0.000000,0.000000,0.000000,0.000000,0.000000
1762435492516146,-20.609756,0.000000,0.000000,0.000000,0.000000,0.000000
1762435492526045,-10.060976,0.000000,0.000000,0.000000,0.000000,0.000000
1762435492535943,8.170732,0.000000,0.000000,0.000000,0.000000,0.000000
1762435492545843,15.060976,0.000000,0.000000,0.000000,0.000000,0.000000
1762435492555740,7.865854,0.000000,0.000000,0.000000,0.000000,0.000000
1762435492565638,-10.243902,0.000000,0.000000,0.000000,0.000000,0.000000
1762435492575537,-15.853659,0.000000,0.000000,0.000000,0.000000,0.000000
1762435492585438,-1.585366,0.000000,0.000000,0.000000,0.000000,0.000000
1762435492595333,3.902439,0.000000,0.000000,0.000000,0.000000,0.000000
1762435492605232,-5.731708,0.000000,0.000000,0.000000,0.000000,0.000000
1762435492615130,-7.500000,0.000000,0.000000,0.000000,0.000000,0.000000
1762435492625028,-1.829268,0.000000,0.000000,0.000000,0.000000,0.000000
1762435492634927,5.731708,0.000000,0.000000,0.000000,0.000000,0.000000
1762435492644825,13.170732,0.000000,0.000000,0.000000,0.000000,0.000000
1762435492654723,4.207317,0.000000,0.000000,0.000000,0.000000,0.000000
1762435492664622,-13.353659,0.000000,0.000000,0.000000,0.000000,0.000000
1762435492674520,-11.402439,0.000000,0.000000,0.000000,0.000000,0.000000
1762435492684419,3.841464,0.000000,0.000000,0.000000,0.000000,0.000000
1762435492694317,10.853659,0.000000,0.000000,0.000000,0.000000,0.000000
1762435492704216,6.341464,0.000000,0.000000,0.000000,0.000000,0.000000
1762435492714113,-5.121951,0.000000,0.000000,0.000000,0.000000,0.000000
1762435492724012,-11.829268,-0.000000,-0.000000,0.000000,0.000000,0.000000
1762435492733910,-4.329268,0.000000,0.000000,0.000000,0.000000,0.000000
1762435492743808,5.000000,0.000000,0.000000,0.000000,0.000000,0.000000
1762435492753707,1.402439,0.000000,0.000000,0.000000,0.000000,0.000000
1762435492763605,-5.670732,0.000000,0.000000,0.000000,0.000000,0.000000
1762435492773504,-4.939024,0.000000,0.000000,0.000000,0.000000,0.000000
1762435492783402,4.207317,0.000000,0.000000,0.000000,0.000000,0.000000
1762435492793300,10.121951,0.000000,0.000000,0.000000,0.000000,0.000000
1762435492803198,1.707317,0.000000,0.000000,0.000000,0.000000,0.000000
1762435492813098,-12.439025,0.000000,0.000000,0.000000,0.000000,0.000000
1762435492822995,-17.682928,0.000000,0.000000,0.000000,0.000000,0.000000
1762435492832894,-8.048780,0.000000,0.000000,0.000000,0.000000,0.000000
1762435492842792,-3.963415,0.000000,0.000000,0.000000,0.000000,0.000000
1762435492852690,-10.670732,0.000000,0.000000,0.000000,0.000000,0.000000
1762435492862588,-17.256098,0.000000,0.000000,0.000000,0.000000,0.000000
1762435492872487,-21.463415,0.000000,0.000000,0.000000,0.000000,0.000000
1762435492882385,-23.170732,0.000000,0.000000,0.000000,0.000000,0.000000
1762435492892284,-14.024390,0.000000,0.000000,0.000000,0.000000,0.000000
1762435492902182,-18.048780,0.000000,0.000000,0.000000,0.000000,0.000000
1762435492912080,-25.426830,0.000000,0.000000,0.000000,0.000000,0.000000
1762435492921978,-7.743903,0.000000,0.000000,0.000000,0.000000,0.000000
1762435492931878,3.414634,0.000000,0.000000,0.000000,0.000000,0.000000
1762435492941775,-6.036585,0.000000,0.000000,0.000000,0.000000,0.000000
1762435492951673,-22.012196,-0.000000,-0.000000,0.000000,0.000000,0.000000
1762435492961572,-25.426830,-0.000000,-0.000000,0.000000,0.000000,0.000000
1762435492971470,-8.414635,0.000000,0.000000,0.000000,0.000000,0.000000
1762435492981369,20.243902,0.000000,0.000000,0.000000,0.000000,0.000000
1762435492991267,0.548781,0.000000,0.000000,0.000000,0.000000,0.000000
1762435493001165,-27.500000,0.000000,0.000000,0.000000,0.000000,0.000000
1762435493011064,-22.256098,0.000000,0.000000,0.000000,0.000000,0.000000
1762435493020962,-11.707317,0.000000,0.000000,0.000000,0.000000,0.000000
1762435493030860,-3.414634,0.000000,0.000000,0.000000,0.000000,0.000000
1762435493040760,-4.756098,0.000000,0.000000,0.000000,0.000000,0.000000
1762435493050657,-26.219513,0.000000,0.000000,0.000000,0.000000,0.000000
1762435493060556,-33.048782,0.000000,0.000000,0.000000,0.000000,0.000000
1762435493070454,-4.756098,0.000000,0.000000,0.000000,0.000000,0.000000
1762435493080353,15.426829,0.000000,0.000000,0.000000,0.000000,0.000000
1762435493090250,7.987805,0.000000,0.000000,0.000000,0.000000,0.000000
1762435493100149,-9.268293,0.000000,0.000000,0.000000,0.000000,0.000000
1762435493110047,-20.487804,-0.000000,-0.000000,0.000000,0.000000,0.000000
1762435493119945,-8.658537,0.000000,0.000000,0.000000,0.000000,0.000000
1762435493129844,23.170732,0.000000,0.000000,0.000000,0.000000,0.000000
1762435493139742,25.426830,0.000000,0.000000,0.000000,0.000000,0.000000
1762435493149641,-5.000000,0.000000,0.000000,0.000000,0.000000,0.000000
1762435493159539,-24.634148,0.000000,0.000000,0.000000,0.000000,0.000000
1762435493169438,-20.670732,0.000000,0.000000,0.000000,0.000000,0.000000
1762435493179341,-3.841464,0.000000,0.000000,0.000000,0.000000,0.000000
1762435493189234,10.426829,0.000000,0.000000,0.000000,0.000000,0.000000
1762435493199132,-2.195122,0.000000,0.000000,0.000000,0.000000,0.000000
1762435493209030,-23.597561,0.000000,0.000000,0.000000,0.000000,0.000000
1762435493218929,-18.231709,0.000000,0.000000,0.000000,0.000000,0.000000
1762435493228827,2.926829,0.000000,0.000000,0.000000,0.000000,0.000000
1762435493238725,12.378049,0.000000,0.000000,0.000000,0.000000,0.000000
1762435493248626,-3.170732,0.000000,0.000000,0.000000,0.000000,0.000000
1762435493258522,-30.243904,-0.000000,-0.000000,0.000000,0.000000,0.000000
1762435493268422,-9.573171,0.000000,0.000000,0.000000,0.000000,0.000000
1762435493278319,14.451220,0.000000,0.000000,0.000000,0.000000,0.000000
1762435493288217,35.975609,0.000000,0.000000,0.000000,0.000000,0.000000
1762435493298116,27.317074,0.000000,0.000000,0.000000,0.000000,0.000000
1762435493308014,-17.012196,0.000000,0.000000,0.000000,0.000000,0.000000
1762435493317912,-15.487805,-0.000000,-0.000000,0.000000,0.000000,0.000000
1762435493327811,17.378050,0.000000,0.000000,0.000000,0.000000,0.000000
1762435493337709,11.402439,0.000000,0.000000,0.000000,0.000000,0.000000
1762435493347607,-2.743902,0.000000,0.000000,0.000000,0.000000,0.000000
1762435493357505,-15.914635,0.000000,0.000000,0.000000,0.000000,0.000000
1762435493367406,-50.487804,0.000000,0.000000,0.000000,0.000000,0.000000
1762435493377302,-13.353659,0.000000,0.000000,0.000000,0.000000,0.000000
1762435493387201,23.048780,0.000000,0.000000,0.000000,0.000000,0.000000
1762435493397099,9.207317,0.000000,0.000000,0.000000,0.000000,0.000000
1762435493406997,0.365854,0.000000,0.000000,0.000000,0.000000,0.000000
1762435493416896,-11.158537,-0.000000,-0.000000,0.000000,0.000000,0.000000
1762435493426794,-15.670732,0.000000,0.000000,0.000000,0.000000,0.000000
1762435493436693,23.902439,0.000000,0.000000,0.000000,0.000000,0.000000
1762435493446591,38.292683,0.000000,0.000000,0.000000,0.000000,0.000000
1762435493456489,3.231707,0.000000,0.000000,0.000000,0.000000,0.000000
1762435493466388,-11.524390,-0.000000,-0.000000,0.000000,0.000000,0.000000
1762435493476288,-2.682927,-0.000000,-0.000000,0.000000,0.000000,0.000000
1762435493486184,2.743902,0.000000,0.000000,0.000000,0.000000,0.000000
1762435493496084,16.585365,0.000000,0.000000,0.000000,0.000000,0.000000
1762435493505981,4.085366,0.000000,0.000000,0.000000,0.000000,0.000000
1762435493515879,-32.865856,0.000000,0.000000,0.000000,0.000000,0.000000
1762435493525778,-26.463415,0.000000,0.000000,0.000000,0.000000,0.000000
1762435493535676,1.463415,0.000000,0.000000,0.000000,0.000000,0.000000
1762435493545574,2.439024,0.000000,0.000000,0.000000,0.000000,0.000000
1762435493555473,0.182927,0.000000,0.000000,0.000000,0.000000,0.000000
1762435493565371,-7.865854,-0.000000,-0.000000,0.000000,0.000000,0.000000
1762435493575269,-16.097561,-0.000000,-0.000000,0.000000,0.000000,0.000000
1762435493585169,9.634147,0.000000,0.000000,0.000000,0.000000,0.000000
1762435493595067,27.987806,0.000000,0.000000,0.000000,0.000000,0.000000
1762435493604964,10.121951,0.000000,0.000000,0.000000,0.000000,0.000000
1762435493614863,-1.280488,0.000000,0.000000,0.000000,0.000000,0.000000
1762435493624761,-1.890244,0.000000,0.000000,0.000000,0.000000,0.000000
1762435493634660,-1.707317,0.000000,0.000000,0.000000,0.000000,0.000000
1762435493644558,11.219513,0.000000,0.000000,0.000000,0.000000,0.000000
1762435493654456,9.268293,0.000000,0.000000,0.000000,0.000000,0.000000
1762435493664354,-16.097561,0.000000,0.000000,0.000000,0.000000,0.000000
1762435493674253,-21.463415,0.000000,0.000000,0.000000,0.000000,0.000000
1762435493684151,-8.536586,0.000000,0.000000,0.000000,0.000000,0.000000
1762435493694050,-1.646342,0.000000,0.000000,0.000000,0.000000,0.000000
1762435493703949,3.841464,0.000000,0.000000,0.000000,0.000000,0.000000
1762435493713846,-8.719512,0.000000,0.000000,0.000000,0.000000,0.000000
1762435493723745,-21.402439,-0.000000,-0.000000,0.000000,0.000000,0.000000
1762435493733643,-11.524390,-0.000000,-0.000000,0.000000,0.000000,0.000000
1762435493743541,0.243902,0.000000,0.000000,0.000000,0.000000,0.000000
1762435493753440,-1.341463,0.000000,0.000000,0.000000,0.000000,0.000000
1762435493763338,-13.353659,0.000000,0.000000,0.000000,0.000000,0.000000
1762435493773236,-5.853659,0.000000,0.000000,0.000000,0.000000,0.000000
1762435493783135,28.414635,0.000000,0.000000,0.000000,0.000000,0.000000
1762435493793033,39.878048,0.000000,0.000000,0.000000,0.000000,0.000000
1762435493802932,34.329269,0.000000,0.000000,0.000000,0.000000,0.000000
1762435493812831,-7.987805,-0.000000,-0.000000,0.000000,0.000000,0.000000
1762435493822728,-41.097561,-0.000000,-0.000000,0.000000,0.000000,0.000000
1762435493832626,-9.512196,0.000000,0.000000,0.000000,0.000000,0.000000
1762435493842525,16.280489,0.000000,0.000000,0.000000,0.000000,0.000000
1762435493852423,1.768293,0.000000,0.000000,0.000000,0.000000,0.000000
1762435493862322,-2.195122,0.000000,0.000000,0.000000,0.000000,0.000000
1762435493872220,-24.268293,0.000000,0.000000,0.000000,0.000000,0.000000
1762435493882118,-43.475613,0.000000,0.000000,0.000000,0.000000,0.000000
1762435493892017,-9.512196,0.000000,0.000000,0.000000,0.000000,0.000000
1762435493901915,1.524390,0.000000,0.000000,0.000000,0.000000,0.000000
1762435493911815,-8.536586,0.000000,0.000000,0.000000,0.000000,0.000000
1762435493921712,2.317073,0.000000,0.000000,0.000000,0.000000,0.000000
1762435493931610,-10.304878,0.000000,0.000000,0.000000,0.000000,0.000000
1762435493941509,-18.902439,0.000000,0.000000,0.000000,0.000000,0.000000
1762435493951407,0.426829,0.000000,0.000000,0.000000,0.000000,0.000000
1762435493961306,-3.170732,0.000000,0.000000,0.000000,0.000000,0.000000
1762435493971204,-12.926829,0.000000,0.000000,0.000000,0.000000,0.000000
1762435493981102,-3.658537,0.000000,0.000000,0.000000,0.000000,0.000000
1762435493991000,-5.060976,0.000000,0.000000,0.000000,0.000000,0.000000
1762435494000899,-6.890244,0.000000,0.000000,0.000000,0.000000,0.000000
1762435494010797,7.987805,0.000000,0.000000,0.000000,0.000000,0.000000
1762435494020696,3.231707,0.000000,0.000000,0.000000,0.000000,0.000000
1762435494030595,-2.682927,0.000000,0.000000,0.000000,0.000000,0.000000
1762435494040492,1.585366,0.000000,0.000000,0.000000,0.000000,0.000000
1762435494050391,-3.414634,0.000000,0.000000,0.000000,0.000000,0.000000
1762435494060289,1.158537,0.000000,0.000000,0.000000,0.000000,0.000000
1762435494070188,10.914635,0.000000,0.000000,0.000000,0.000000,0.000000
1762435494080086,-0.975610,0.000000,0.000000,0.000000,0.000000,0.000000
1762435494089984,-0.243902,0.000000,0.000000,0.000000,0.000000,0.000000
1762435494099882,1.219512,0.000000,0.000000,0.000000,0.000000,0.000000
1762435494109781,0.243902,0.000000,0.000000,0.000000,0.000000,0.000000
1762435494119682,11.219513,0.000000,0.000000,0.000000,0.000000,0.000000
1762435494129577,9.939025,0.000000,0.000000,0.000000,0.000000,0.000000
1762435494139477,-1.707317,-0.000000,-0.000000,0.000000,0.000000,0.000000
1762435494149374,2.621951,0.000000,0.000000,0.000000,0.000000,0.000000
1762435494159273,8.231708,0.000000,0.000000,0.000000,0.000000,0.000000
1762435494169171,6.707317,0.000000,0.000000,0.000000,0.000000,0.000000
1762435494179069,10.243902,0.000000,0.000000,0.000000,0.000000,0.000000
1762435494188968,4.878049,0.000000,0.000000,0.000000,0.000000,0.000000
1762435494198866,-9.024390,0.000000,0.000000,0.000000,0.000000,0.000000
1762435494208764,-9.085366,0.000000,0.000000,0.000000,0.000000,0.000000
1762435494218663,-0.792683,0.000000,0.000000,0.000000,0.000000,0.000000
1762435494228562,4.939024,0.000000,0.000000,0.000000,0.000000,0.000000
1762435494238461,9.939025,0.000000,0.000000,0.000000,0.000000,0.000000
1762435494248358,3.780488,0.000000,0.000000,0.000000,0.000000,0.000000
1762435494258256,-6.890244,0.000000,0.000000,0.000000,0.000000,0.000000
1762435494268154,-1.036585,0.000000,0.000000,0.000000,0.000000,0.000000
1762435494278053,10.000000,0.000000,0.000000,0.000000,0.000000,0.000000
1762435494287951,15.000000,0.000000,0.000000,0.000000,0.000000,0.000000
1762435494297850,13.963415,0.000000,0.000000,0.000000,0.000000,0.000000
1762435494307748,-0.792683,0.000000,0.000000,0.000000,0.000000,0.000000
1762435494317647,-7.926829,0.000000,0.000000,0.000000,0.000000,0.000000
1762435494327545,6.097561,0.000000,0.000000,0.000000,0.000000,0.000000
1762435494337443,18.109756,0.000000,0.000000,0.000000,0.000000,0.000000
1762435494347343,12.987805,0.000000,0.000000,0.000000,0.000000,0.000000
1762435494357240,0.182927,0.000000,0.000000,0.000000,0.000000,0.000000
1762435494367138,-4.085366,-0.000000,-0.000000,0.000000,0.000000,0.000000
1762435494377036,5.000000,0.000000,0.000000,0.000000,0.000000,0.000000
1762435494386935,17.621952,0.000000,0.000000,0.000000,0.000000,0.000000
1762435494396833,12.317074,0.000000,0.000000,0.000000,0.000000,0.000000
1762435494406731,-8.841464,0.000000,0.000000,0.000000,0.000000,0.000000
1762435494416630,-16.097561,0.000000,0.000000,0.000000,0.000000,0.000000
1762435494426528,-4.817073,0.000000,0.000000,0.000000,0.000000,0.000000
1762435494436427,8.902439,0.000000,0.000000,0.000000,0.000000,0.000000
1762435494446325,12.865854,0.000000,0.000000,0.000000,0.000000,0.000000
1762435494456223,0.304878,0.000000,0.000000,0.000000,0.000000,0.000000
1762435494466122,-6.158537,0.000000,0.000000,0.000000,0.000000,0.000000
1762435494476021,5.609756,0.000000,0.000000,0.000000,0.000000,0.000000
1762435494485918,19.268293,0.000000,0.000000,0.000000,0.000000,0.000000
1762435494495817,14.756098,0.000000,0.000000,0.000000,0.000000,0.000000
1762435494505715,1.646342,0.000000,0.000000,0.000000,0.000000,0.000000
1762435494515613,-5.060976,-0.000000,-0.000000,0.000000,0.000000,0.000000
1762435494525512,-1.097561,0.000000,0.000000,0.000000,0.000000,0.000000
1762435494535410,9.695122,0.000000,0.000000,0.000000,0.000000,0.000000
1762435494545308,11.707317,0.000000,0.000000,0.000000,0.000000,0.000000
1762435494555209,-3.963415,0.000000,0.000000,0.000000,0.000000,0.000000
1762435494565105,-14.390244,0.000000,0.000000,0.000000,0.000000,0.000000
1762435494575004,-4.878049,0.000000,0.000000,0.000000,0.000000,0.000000
1762435494584902,15.731708,0.000000,0.000000,0.000000,0.000000,0.000000
1762435494594800,38.231709,0.000000,0.000000,0.000000,0.000000,0.000000
1762435494604698,33.109756,0.000000,0.000000,0.000000,0.000000,0.000000
1762435494614597,6.463415,0.000000,0.000000,0.000000,0.000000,0.000000
1762435494624495,-1.768293,0.000000,0.000000,0.000000,0.000000,0.000000
1762435494634394,15.487805,0.000000,0.000000,0.000000,0.000000,0.000000
1762435494644292,39.817074,0.000000,0.000000,0.000000,0.000000,0.000000
1762435494654190,56.402439,0.000000,0.000000,0.000000,0.000000,0.000000
1762435494664089,48.414635,0.000000,0.000000,0.000000,0.000000,0.000000
1762435494673988,29.207317,0.000000,0.000000,0.000000,0.000000,0.000000
1762435494683886,29.207317,0.000000,0.000000,0.000000,0.000000,0.000000
1762435494693784,54.207317,0.000000,0.000000,0.000000,0.000000,0.000000
1762435494703682,66.707321,0.000000,0.000000,0.000000,0.000000,0.000000
1762435494713581,54.390244,0.000000,0.000000,0.000000,0.000000,0.000000
1762435494723479,46.890244,0.000000,0.000000,0.000000,0.000000,0.000000
1762435494733377,37.743904,0.000000,0.000000,0.000000,0.000000,0.000000
1762435494743276,38.292683,0.000000,0.000000,0.000000,0.000000,0.000000
1762435494753174,48.902439,0.000000,0.000000,0.000000,0.000000,0.000000
1762435494763073,40.487804,0.000000,0.000000,0.000000,0.000000,0.000000
1762435494772971,43.841465,0.000000,0.000000,0.000000,0.000000,0.000000
1762435494782870,35.731709,0.000000,0.000000,0.000000,0.000000,0.000000
1762435494792768,9.512196,0.000000,0.000000,0.000000,0.000000,0.000000
1762435494802666,-22.378050,0.000000,0.000000,0.000000,0.000000,0.000000
1762435494812565,-43.475613,0.000000,0.000000,0.000000,0.000000,0.000000
1762435494822463,-36.036587,0.000000,0.000000,0.000000,0.000000,0.000000
1762435494832361,-14.878049,0.000000,0.000000,0.000000,0.000000,0.000000
1762435494842259,0.548781,0.000000,0.000000,0.000000,0.000000,0.000000
1762435494852158,-12.865854,0.000000,0.000000,0.000000,0.000000,0.000000
1762435494862056,-47.560978,0.000000,0.000000,0.000000,0.000000,0.000000
1762435494871955,-71.646339,-0.000000,-0.000000,0.000000,0.000000,0.000000
1762435494881853,-67.865852,0.000000,0.000000,0.000000,0.000000,0.000000
1762435494891751,-51.219513,0.000000,0.000000,0.000000,0.000000,0.000000
1762435494901650,-28.292683,-0.000000,-0.000000,0.000000,0.000000,0.000000
1762435494911548,-11.036586,-0.000000,-0.000000,0.000000,0.000000,0.000000
1762435494921446,0.243902,0.000000,0.000000,0.000000,0.000000,0.000000
1762435494931345,-13.780488,0.000000,0.000000,0.000000,0.000000,0.000000
1762435494941244,-25.975611,0.000000,0.000000,0.000000,0.000000,0.000000
1762435494951141,-15.060976,-0.000000,-0.000000,0.000000,0.000000,0.000000
1762435494961040,1.951220,0.000000,0.000000,0.000000,0.000000,0.000000
1762435494970939,17.865854,0.000000,0.000000,0.000000,0.000000,0.000000
1762435494980837,25.182928,0.000000,0.000000,0.000000,0.000000,0.000000
1762435494990737,-7.621952,0.000000,0.000000,0.000000,0.000000,0.000000
1762435495000633,-51.829269,-0.000000,-0.000000,0.000000,0.000000,0.000000
1762435495010532,-41.890244,-0.000000,-0.000000,0.000000,0.000000,0.000000
1762435495020430,2.804878,0.000000,0.000000,0.000000,0.000000,0.000000
1762435495030328,44.573174,0.000000,0.000000,0.000000,0.000000,0.000000
1762435495040227,47.926830,0.000000,0.000000,0.000000,0.000000,0.000000
1762435495050125,8.109756,0.000000,0.000000,0.000000,0.000000,0.000000
1762435495060023,-23.841463,0.000000,0.000000,0.000000,0.000000,0.000000
1762435495069922,-19.451220,-0.000000,-0.000000,0.000000,0.000000,0.000000
1762435495079820,33.658539,0.000000,0.000000,0.000000,0.000000,0.000000
1762435495089719,53.475613,0.000000,0.000000,0.000000,0.000000,0.000000
1762435495099617,26.890245,0.000000,0.000000,0.000000,0.000000,0.000000
1762435495109516,2.865854,0.000000,0.000000,0.000000,0.000000,0.000000
1762435495119413,-2.378049,-0.000000,-0.000000,0.000000,0.000000,0.000000
1762435495129312,28.902439,0.000000,0.000000,0.000000,0.000000,0.000000
1762435495139210,49.939026,0.000000,0.000000,0.000000,0.000000,0.000000
1762435495149108,30.853659,0.000000,0.000000,0.000000,0.000000,0.000000
1762435495159007,-24.146341,0.000000,0.000000,0.000000,0.000000,0.000000
1762435495168905,-51.402439,-0.000000,-0.000000,0.000000,0.000000,0.000000
1762435495178804,-5.975610,0.000000,0.000000,0.000000,0.000000,0.000000
1762435495188702,33.414635,0.000000,0.000000,0.000000,0.000000,0.000000
1762435495198601,19.329269,0.000000,0.000000,0.000000,0.000000,0.000000
1762435495208499,-16.341463,0.000000,0.000000,0.000000,0.000000,0.000000
1762435495218399,-32.682926,0.000000,0.000000,0.000000,0.000000,0.000000
1762435495228296,-2.134146,0.000000,0.000000,0.000000,0.000000,0.000000
1762435495238194,34.146343,0.000000,0.000000,0.000000,0.000000,0.000000
1762435495248093,27.317074,0.000000,0.000000,0.000000,0.000000,0.000000
1762435495257991,-8.658537,0.000000,0.000000,0.000000,0.000000,0.000000
1762435495267889,-16.524391,-0.000000,-0.000000,0.000000,0.000000,0.000000
1762435495277788,1.463415,0.000000,0.000000,0.000000,0.000000,0.000000
1762435495287686,32.256100,0.000000,0.000000,0.000000,0.000000,0.000000
1762435495297584,47.256100,0.000000,0.000000,0.000000,0.000000,0.000000
1762435495307483,0.487805,0.000000,0.000000,0.000000,0.000000,0.000000
1762435495317382,-31.219513,-0.000000,-0.000000,0.000000,0.000000,0.000000
1762435495327279,-12.804878,0.000000,0.000000,0.000000,0.000000,0.000000
1762435495337178,10.975610,0.000000,0.000000,0.000000,0.000000,0.000000
1762435495347076,11.585366,0.000000,0.000000,0.000000,0.000000,0.000000
1762435495356975,-17.987804,0.000000,0.000000,0.000000,0.000000,0.000000
1762435495366873,-38.597561,0.000000,0.000000,0.000000,0.000000,0.000000
1762435495376772,-20.853659,0.000000,0.000000,0.000000,0.000000,0.000000
1762435495386670,5.000000,0.000000,0.000000,0.000000,0.000000,0.000000
1762435495396568,7.012195,0.000000,0.000000,0.000000,0.000000,0.000000
1762435495406467,-14.268293,0.000000,0.000000,0.000000,0.000000,0.000000
1762435495416365,-16.524391,-0.000000,-0.000000,0.000000,0.000000,0.000000
1762435495426265,13.353659,0.000000,0.000000,0.000000,0.000000,0.000000
1762435495436162,32.439026,0.000000,0.000000,0.000000,0.000000,0.000000
1762435495446061,28.231709,0.000000,0.000000,0.000000,0.000000,0.000000
1762435495455958,5.487805,0.000000,0.000000,0.000000,0.000000,0.000000
1762435495465857,-12.073171,0.000000,0.000000,0.000000,0.000000,0.000000
1762435495475755,-1.890244,0.000000,0.000000,0.000000,0.000000,0.000000
1762435495485653,8.048780,0.000000,0.000000,0.000000,0.000000,0.000000
1762435495495552,8.231708,0.000000,0.000000,0.000000,0.000000,0.000000
1762435495505450,0.121951,0.000000,0.000000,0.000000,0.000000,0.000000
1762435495515349,-16.585365,0.000000,0.000000,0.000000,0.000000,0.000000
1762435495525247,-15.304878,0.000000,0.000000,0.000000,0.000000,0.000000
1762435495535145,-7.682927,0.000000,0.000000,0.000000,0.000000,0.000000
1762435495545044,-7.195122,0.000000,0.000000,0.000000,0.000000,0.000000
1762435495554942,-17.865854,-0.000000,-0.000000,0.000000,0.000000,0.000000
1762435495564840,-0.121951,-0.000000,-0.000000,0.000000,0.000000,0.000000
1762435495574739,17.621952,0.000000,0.000000,0.000000,0.000000,0.000000
1762435495584637,24.268293,0.000000,0.000000,0.000000,0.000000,0.000000
1762435495594535,17.500000,0.000000,0.000000,0.000000,0.000000,0.000000
1762435495604434,0.060976,0.000000,0.000000,0.000000,0.000000,0.000000
1762435495614331,4.451220,0.000000,0.000000,0.000000,0.000000,0.000000
1762435495624232,23.719513,0.000000,0.000000,0.000000,0.000000,0.000000
1762435495634131,20.121952,0.000000,0.000000,0.000000,0.000000,0.000000
1762435495644027,-14.024390,0.000000,0.000000,0.000000,0.000000,0.000000
1762435495653927,-19.756098,0.000000,0.000000,0.000000,0.000000,0.000000
1762435495663824,-18.292683,0.000000,0.000000,0.000000,0.000000,0.000000
1762435495673722,-12.500000,0.000000,0.000000,0.000000,0.000000,0.000000
1762435495683621,0.182927,0.000000,0.000000,0.000000,0.000000,0.000000
1762435495693520,-19.695122,0.000000,0.000000,0.000000,0.000000,0.000000
1762435495703418,-42.682926,0.000000,0.000000,0.000000,0.000000,0.000000
1762435495713316,-17.073172,-0.000000,-0.000000,0.000000,0.000000,0.000000
1762435495723214,7.439024,0.000000,0.000000,0.000000,0.000000,0.000000
1762435495733113,-0.731707,0.000000,0.000000,0.000000,0.000000,0.000000
1762435495743011,-0.548781,-0.000000,-0.000000,0.000000,0.000000,0.000000
1762435495752911,46.524391,0.000000,0.000000,0.000000,0.000000,0.000000
1762435495762808,45.426830,0.000000,0.000000,0.000000,0.000000,0.000000
1762435495772706,54.634148,0.000000,0.000000,0.000000,0.000000,0.000000
1762435495782605,65.426834,0.000000,0.000000,0.000000,0.000000,0.000000
1762435495792504,60.365856,0.000000,0.000000,0.000000,0.000000,0.000000
1762435495802401,86.585365,0.000000,0.000000,0.000000,0.000000,0.000000
1762435495812300,81.280487,0.000000,0.000000,0.000000,0.000000,0.000000
1762435495822198,28.902439,0.000000,0.000000,0.000000,0.000000,0.000000
1762435495832096,19.512196,0.000000,0.000000,0.000000,0.000000,0.000000
1762435495841995,41.158539,0.000000,0.000000,0.000000,0.000000,0.000000
1762435495851893,45.304878,0.000000,0.000000,0.000000,0.000000,0.000000
1762435495861794,42.804878,0.000000,0.000000,0.000000,0.000000,0.000000
1762435495871690,42.317074,0.000000,0.000000,0.000000,0.000000,0.000000
1762435495881588,42.012196,0.000000,0.000000,0.000000,0.000000,0.000000
1762435495891487,86.829269,0.000000,0.000000,0.000000,0.000000,0.000000
1762435495901385,116.097565,0.000000,0.000000,0.000000,0.000000,0.000000
1762435495911284,87.134148,0.000000,0.000000,0.000000,0.000000,0.000000
1762435495921182,73.780487,0.000000,0.000000,0.000000,0.000000,0.000000
1762435495931081,96.829269,0.000000,0.000000,0.000000,0.000000,0.000000
1762435495940979,101.585365,0.000000,0.000000,0.000000,0.000000,0.000000
1762435495950877,78.109756,0.000000,0.000000,0.000000,0.000000,0.000000
1762435495960775,43.841465,0.000000,0.000000,0.000000,0.000000,0.000000
1762435495970674,16.524391,0.000000,0.000000,0.000000,0.000000,0.000000
1762435495980573,18.231709,0.000000,0.000000,0.000000,0.000000,0.000000
1762435495990470,-3.109756,0.000000,0.000000,0.000000,0.000000,0.000000
1762435496000369,-25.365854,0.000000,0.000000,0.000000,0.000000,0.000000
1762435496010267,-19.512196,0.000000,0.000000,0.000000,0.000000,0.000000
1762435496020166,14.329268,0.000000,0.000000,0.000000,0.000000,0.000000
1762435496030064,47.317074,0.000000,0.000000,0.000000,0.000000,0.000000
1762435496039963,57.926830,0.000000,0.000000,0.000000,0.000000,0.000000
1762435496049860,75.243904,0.000000,0.000000,0.000000,0.000000,0.000000
1762435496059759,159.390244,0.000000,0.000000,0.000000,0.000000,0.000000
1762435496069660,173.719513,0.000000,0.000000,0.000000,0.000000,0.000000
1762435496079556,120.548782,0.000000,0.000000,0.000000,0.000000,0.000000
1762435496089455,85.365852,0.000000,0.000000,0.000000,0.000000,0.000000
1762435496099353,68.231712,0.000000,0.000000,0.000000,0.000000,0.000000
1762435496109251,77.378052,0.000000,0.000000,0.000000,0.000000,0.000000
1762435496119149,49.329269,0.000000,0.000000,0.000000,0.000000,0.000000
1762435496129048,15.365854,0.000000,0.000000,0.000000,0.000000,0.000000
1762435496138946,-10.670732,0.000000,0.000000,0.000000,0.000000,0.000000
1762435496148844,18.048780,0.000000,0.000000,0.000000,0.000000,0.000000
1762435496158743,53.658539,0.000000,0.000000,0.000000,0.000000,0.000000
1762435496168641,75.975609,0.000000,0.000000,0.000000,0.000000,0.000000
1762435496178540,92.682930,0.000000,0.000000,0.000000,0.000000,0.000000
1762435496188439,89.573174,0.000000,0.000000,0.000000,0.000000,0.000000
1762435496198337,84.634148,0.000000,0.000000,0.000000,0.000000,0.000000
1762435496208235,69.878052,0.000000,0.000000,0.000000,0.000000,0.000000
1762435496218133,37.926830,0.000000,0.000000,0.000000,0.000000,0.000000
1762435496228032,11.768293,0.000000,0.000000,0.000000,0.000000,0.000000
1762435496237930,15.060976,0.000000,0.000000,0.000000,0.000000,0.000000
1762435496247829,1.585366,0.000000,0.000000,0.000000,0.000000,0.000000
1762435496257727,-3.841464,-0.000000,-0.000000,0.000000,0.000000,0.000000
1762435496267625,7.560976,0.000000,0.000000,0.000000,0.000000,0.000000
1762435496277526,28.048780,0.000000,0.000000,0.000000,0.000000,0.000000
1762435496287422,35.609756,0.000000,0.000000,0.000000,0.000000,0.000000
1762435496297322,27.073172,0.000000,0.000000,0.000000,0.000000,0.000000
1762435496307219,1.829268,0.000000,0.000000,0.000000,0.000000,0.000000
1762435496317117,12.500000,0.000000,0.000000,0.000000,0.000000,0.000000
1762435496327016,-10.365854,0.000000,0.000000,0.000000,0.000000,0.000000
1762435496336914,-49.817074,0.000000,0.000000,0.000000,0.000000,0.000000
1762435496346812,-29.390245,0.000000,0.000000,0.000000,0.000000,0.000000
1762435496356710,-12.195122,-0.000000,-0.000000,0.000000,0.000000,0.000000
1762435496366609,-3.414634,-0.000000,-0.000000,0.000000,0.000000,0.000000
1762435496376507,6.219512,0.000000,0.000000,0.000000,0.000000,0.000000
1762435496386405,5.975610,0.000000,0.000000,0.000000,0.000000,0.000000
1762435496396305,12.134147,0.000000,0.000000,0.000000,0.000000,0.000000
1762435496406202,36.280487,0.000000,0.000000,0.000000,0.000000,0.000000
1762435496416101,11.768293,0.000000,0.000000,0.000000,0.000000,0.000000
1762435496425999,-11.707317,0.000000,0.000000,0.000000,0.000000,0.000000
1762435496435898,-11.097561,0.000000,0.000000,0.000000,0.000000,0.000000
1762435496445796,-11.280488,0.000000,0.000000,0.000000,0.000000,0.000000
1762435496455694,-33.292683,0.000000,0.000000,0.000000,0.000000,0.000000
1762435496465592,-20.426830,0.000000,0.000000,0.000000,0.000000,0.000000
1762435496475491,-19.268293,0.000000,0.000000,0.000000,0.000000,0.000000
1762435496485389,-12.195122,0.000000,0.000000,0.000000,0.000000,0.000000
1762435496495287,-3.170732,0.000000,0.000000,0.000000,0.000000,0.000000
1762435496505188,12.195122,0.000000,0.000000,0.000000,0.000000,0.000000
1762435496515085,27.804878,0.000000,0.000000,0.000000,0.000000,0.000000
1762435496524983,8.841464,0.000000,0.000000,0.000000,0.000000,0.000000
1762435496534881,-45.182926,0.000000,0.000000,0.000000,0.000000,0.000000
1762435496544780,-43.841465,0.000000,0.000000,0.000000,0.000000,0.000000
1762435496554678,-37.256100,0.000000,0.000000,0.000000,0.000000,0.000000
1762435496564576,-25.182928,0.000000,0.000000,0.000000,0.000000,0.000000
1762435496574475,-44.268295,0.000000,0.000000,0.000000,0.000000,0.000000
1762435496584373,-25.121952,0.000000,0.000000,0.000000,0.000000,0.000000
1762435496594271,-6.219512,0.000000,0.000000,0.000000,0.000000,0.000000
1762435496604170,14.085366,0.000000,0.000000,0.000000,0.000000,0.000000
1762435496614068,10.670732,0.000000,0.000000,0.000000,0.000000,0.000000
1762435496623967,-11.158537,0.000000,0.000000,0.000000,0.000000,0.000000
1762435496633865,4.817073,0.000000,0.000000,0.000000,0.000000,0.000000
1762435496643763,9.329268,0.000000,0.000000,0.000000,0.000000,0.000000
1762435496653662,42.621952,0.000000,0.000000,0.000000,0.000000,0.000000
1762435496663560,15.365854,0.000000,0.000000,0.000000,0.000000,0.000000
1762435496673458,0.000000,0.000000,0.000000,0.000000,0.000000,0.000000
1762435496683357,42.865856,0.000000,0.000000,0.000000,0.000000,0.000000
1762435496693255,1.768293,0.000000,0.000000,0.000000,0.000000,0.000000
1762435496703153,-15.365854,0.000000,0.000000,0.000000,0.000000,0.000000
1762435496713054,2.439024,0.000000,0.000000,0.000000,0.000000,0.000000
1762435496722950,48.719513,0.000000,0.000000,0.000000,0.000000,0.000000
1762435496732850,68.658539,0.000000,0.000000,0.000000,0.000000,0.000000
1762435496742747,19.329269,0.000000,0.000000,0.000000,0.000000,0.000000
1762435496752645,-29.451220,-0.000000,-0.000000,0.000000,0.000000,0.000000
1762435496762544,-90.914635,-0.000000,-0.000000,0.000000,0.000000,0.000000
1762435496772442,-71.158539,-0.000000,-0.000000,0.000000,0.000000,0.000000
1762435496782341,-193.902451,0.000000,0.000000,0.000000,0.000000,0.000000
1762435496792239,-50.731709,-0.000000,-0.000000,0.000000,0.000000,0.000000
1762435496802137,-100.182930,-0.000000,-0.000000,0.000000,0.000000,0.000000
1762435496812036,142.256104,0.000000,0.000000,0.000000,0.000000,0.000000
1762435496821934,144.512192,0.000000,0.000000,0.000000,0.000000,0.000000
1762435496831833,65.000000,0.000000,0.000000,0.000000,0.000000,0.000000
1762435496841731,-137.256104,0.000000,0.000000,0.000000,0.000000,0.000000
1762435496851629,-37.621952,0.000000,0.000000,0.000000,0.000000,0.000000
1762435496861528,28.414635,0.000000,0.000000,0.000000,0.000000,0.000000
1762435496871426,17.743902,0.000000,0.000000,0.000000,0.000000,0.000000
1762435496881324,83.170731,0.000000,0.000000,0.000000,0.000000,0.000000
1762435496891223,-104.451225,0.000000,0.000000,0.000000,0.000000,0.000000
1762435496901121,-0.487805,0.000000,0.000000,0.000000,0.000000,0.000000
1762435496911019,53.048782,0.000000,0.000000,0.000000,0.000000,0.000000
1762435496920920,6.158537,0.000000,0.000000,0.000000,0.000000,0.000000
1762435496930816,45.243904,0.000000,0.000000,0.000000,0.000000,0.000000
1762435496940715,35.426830,0.000000,0.000000,0.000000,0.000000,0.000000
1762435496950613,31.463415,0.000000,0.000000,0.000000,0.000000,0.000000
1762435496960511,32.987804,0.000000,0.000000,0.000000,0.000000,0.000000
1762435496970410,-105.426834,0.000000,0.000000,0.000000,0.000000,0.000000
1762435496980308,-154.634155,0.000000,0.000000,0.000000,0.000000,0.000000
1762435496990206,-99.146347,0.000000,0.000000,0.000000,0.000000,0.000000
1762435497000106,-167.926834,0.000000,0.000000,0.000000,0.000000,0.000000
1762435497010003,-220.182938,0.000000,0.000000,0.000000,0.000000,0.000000
1762435497019901,-210.487808,0.000000,0.000000,0.000000,0.000000,0.000000
1762435497029800,-228.170731,0.000000,0.000000,0.000000,0.000000,0.000000
1762435497039699,-192.865860,0.000000,0.000000,0.000000,0.000000,0.000000
1762435497049596,-160.060974,0.000000,0.000000,0.000000,0.000000,0.000000
1762435497059495,-135.975616,0.000000,0.000000,0.000000,0.000000,0.000000
1762435497069394,-66.219513,0.000000,0.000000,0.000000,0.000000,0.000000
1762435497079292,-26.036587,0.000000,0.000000,0.000000,0.000000,0.000000
1762435497089190,-30.060976,0.000000,0.000000,0.000000,0.000000,0.000000
1762435497099088,-27.195122,0.000000,0.000000,0.000000,0.000000,0.000000
1762435497108987,-21.890244,0.000000,0.000000,0.000000,0.000000,0.000000
1762435497118885,-14.146341,0.000000,0.000000,0.000000,0.000000,0.000000
1762435497128783,-8.841464,0.000000,0.000000,0.000000,0.000000,0.000000
1762435497138682,-47.743904,0.000000,0.000000,0.000000,0.000000,0.000000
1762435497148582,-114.756104,0.000000,0.000000,0.000000,0.000000,0.000000
1762435497158478,-137.804886,0.000000,0.000000,0.000000,0.000000,0.000000
1762435497168377,-114.573174,0.000000,0.000000,0.000000,0.000000,0.000000
1762435497178275,-101.524391,0.000000,0.000000,0.000000,0.000000,0.000000
1762435497188174,-82.926834,0.000000,0.000000,0.000000,0.000000,0.000000
1762435497198072,-65.182930,0.000000,0.000000,0.000000,0.000000,0.000000
1762435497207970,-53.658539,0.000000,0.000000,0.000000,0.000000,0.000000
1762435497217870,-22.439026,0.000000,0.000000,0.000000,0.000000,0.000000
1762435497227767,4.878049,0.000000,0.000000,0.000000,0.000000,0.000000
1762435497237665,9.573171,0.000000,0.000000,0.000000,0.000000,0.000000
1762435497247564,8.841464,0.000000,0.000000,0.000000,0.000000,0.000000
1762435497257462,-14.878049,-0.000000,-0.000000,0.000000,0.000000,0.000000
1762435497267361,-31.219513,-0.000000,-0.000000,0.000000,0.000000,0.000000
1762435497277259,-1.402439,-0.000000,-0.000000,0.000000,0.000000,0.000000
1762435497287157,57.865856,0.000000,0.000000,0.000000,0.000000,0.000000
1762435497297056,60.365856,0.000000,0.000000,0.000000,0.000000,0.000000
1762435497306954,24.329269,0.000000,0.000000,0.000000,0.000000,0.000000
1762435497316852,-10.000000,-0.000000,-0.000000,0.000000,0.000000,0.000000
1762435497326750,-27.621952,0.000000,0.000000,0.000000,0.000000,0.000000
1762435497336649,1.951220,0.000000,0.000000,0.000000,0.000000,0.000000
1762435497346547,31.158537,0.000000,0.000000,0.000000,0.000000,0.000000
1762435497356448,-0.487805,0.000000,0.000000,0.000000,0.000000,0.000000
1762435497366344,-30.060976,0.000000,0.000000,0.000000,0.000000,0.000000
1762435497376244,-34.939026,0.000000,0.000000,0.000000,0.000000,0.000000
1762435497386141,0.182927,0.000000,0.000000,0.000000,0.000000,0.000000
1762435497396039,56.768295,0.000000,0.000000,0.000000,0.000000,0.000000
1762435497405938,92.195122,0.000000,0.000000,0.000000,0.000000,0.000000
1762435497415836,83.109756,0.000000,0.000000,0.000000,0.000000,0.000000
1762435497425734,32.804878,0.000000,0.000000,0.000000,0.000000,0.000000
1762435497435633,-33.841465,-0.000000,-0.000000,0.000000,0.000000,0.000000
1762435497445531,-46.219513,-0.000000,-0.000000,0.000000,0.000000,0.000000
1762435497455429,-0.914634,-0.000000,-0.000000,0.000000,0.000000,0.000000
1762435497465328,63.841465,0.000000,0.000000,0.000000,0.000000,0.000000
1762435497475227,137.256104,0.000000,0.000000,0.000000,0.000000,0.000000
1762435497485125,152.987808,0.000000,0.000000,0.000000,0.000000,0.000000
1762435497495023,79.451218,0.000000,0.000000,0.000000,0.000000,0.000000
1762435497504921,9.878049,0.000000,0.000000,0.000000,0.000000,0.000000
1762435497514820,7.134147,0.000000,0.000000,0.000000,0.000000,0.000000
1762435497524718,35.121952,0.000000,0.000000,0.000000,0.000000,0.000000
1762435497534616,1.036585,0.000000,0.000000,0.000000,0.000000,0.000000
1762435497544515,-10.548780,0.000000,0.000000,0.000000,0.000000,0.000000
1762435497554413,2.012195,0.000000,0.000000,0.000000,0.000000,0.000000
1762435497564311,29.024391,0.000000,0.000000,0.000000,0.000000,0.000000
1762435497574210,11.341464,0.000000,0.000000,0.000000,0.000000,0.000000
1762435497584109,-31.402439,0.000000,0.000000,0.000000,0.000000,0.000000
1762435497594006,-53.414635,0.000000,0.000000,0.000000,0.000000,0.000000
1762435497603905,-26.585367,0.000000,0.000000,0.000000,0.000000,0.000000
1762435497613803,-7.073171,0.000000,0.000000,0.000000,0.000000,0.000000
1762435497623702,-35.670734,0.000000,0.000000,0.000000,0.000000,0.000000
1762435497633600,-33.475609,0.000000,0.000000,0.000000,0.000000,0.000000
1762435497643498,21.036587,0.000000,0.000000,0.000000,0.000000,0.000000
1762435497653397,44.390244,0.000000,0.000000,0.000000,0.000000,0.000000
1762435497663295,14.939025,0.000000,0.000000,0.000000,0.000000,0.000000
1762435497673193,-5.792683,-0.000000,-0.000000,0.000000,0.000000,0.000000
1762435497683092,-15.853659,-0.000000,-0.000000,0.000000,0.000000,0.000000
1762435497692990,37.743904,0.000000,0.000000,0.000000,0.000000,0.000000
1762435497702889,62.256100,0.000000,0.000000,0.000000,0.000000,0.000000
1762435497712786,-60.914635,-0.000000,-0.000000,0.000000,0.000000,0.000000
1762435497722685,-114.573174,0.000000,0.000000,0.000000,0.000000,0.000000
1762435497732583,-20.243902,0.000000,0.000000,0.000000,0.000000,0.000000
1762435497742482,-57.926830,0.000000,0.000000,0.000000,0.000000,0.000000
1762435497752380,-60.000000,0.000000,0.000000,0.000000,0.000000,0.000000
