Timestamp (us),Gyroscope X (deg/s),Gyroscope Y (deg/s),Gyroscope Z (deg/s),Accelerometer X (g),Accelerometer Y (g),Accelerometer Z (g)
65800304,116.341469,33.170731,1.707317,0.995117,0.067383,0.087402
1762435482298551,54.329269,22.987806,-4.085366,0.993652,0.072266,0.088867
1762435482308663,7.804878,4.817073,-6.524390,0.991699,0.075684,0.088867
1762435482318775,14.512196,8.902439,-8.048780,0.992188,0.077637,0.086914
1762435482328887,28.109756,6.707317,-4.817073,0.992676,0.080566,0.085938
1762435482338999,10.243902,8.353659,-2.073171,0.993164,0.084473,0.085938
1762435482349112,-30.670732,11.097561,-4.939024,0.993652,0.086426,0.085938
1762435482359224,-39.146343,13.780488,-1.402439,0.995117,0.087402,0.084961
1762435482369336,-11.951220,29.268293,5.609756,0.996094,0.087402,0.083984
1762435482379449,3.597561,43.475613,9.573171,0.995605,0.088379,0.083984
1762435482389561,-9.085366,36.341465,14.207317,0.995117,0.089844,0.085449
1762435482399673,-48.414635,29.695122,14.512196,0.994141,0.089844,0.086914
1762435482409786,-61.890244,41.829269,12.987805,0.993164,0.087402,0.088379
1762435482419898,-37.073174,40.304878,14.573171,0.992676,0.083496,0.090332
1762435482430010,-14.512196,27.743902,13.109756,0.991211,0.080566,0.095215
1762435482440122,-26.829269,16.646341,13.353659,0.990723,0.079590,0.101074
1762435482450235,-40.914635,4.329268,17.987804,0.990234,0.075684,0.105957
1762435482460347,-14.085366,-4.268293,16.097561,0.990723,0.070312,0.108887
1762435482470459,34.512196,6.829268,15.853659,0.991699,0.066895,0.109863
1762435482480572,51.402439,15.182927,20.975611,0.992188,0.065918,0.110840
1762435482490684,30.792685,10.060976,20.121952,0.991699,0.065918,0.111328
1762435482500796,28.597561,17.743902,23.292683,0.991699,0.064941,0.110352
1762435482510909,43.963417,18.841463,31.219513,0.992188,0.063965,0.108398
1762435482521021,107.865860,22.073172,38.109756,0.994629,0.065430,0.107910
1762435482531134,85.426834,30.000000,38.170734,0.994141,0.066895,0.109863
1762435482541246,68.719513,38.475609,36.219513,0.995117,0.068359,0.112305
1762435482551358,57.134148,24.695122,32.012196,0.994629,0.068359,0.115723
1762435482561470,55.121952,29.268293,32.134148,0.993164,0.069336,0.117676
1762435482571582,45.731709,23.719513,29.756098,0.990723,0.071777,0.120117
1762435482581695,14.329268,-4.634147,21.524391,0.989258,0.075684,0.121094
1762435482591807,-12.317074,-21.158537,20.731709,0.989746,0.078125,0.120117
1762435482601919,-21.158537,-13.109756,19.756098,0.990723,0.078613,0.117188
1762435482612032,-20.304878,-3.231707,12.743903,0.991211,0.079102,0.114258
1762435482622144,-31.341465,-0.975610,10.121951,0.990723,0.081055,0.113281
1762435482632257,-79.451218,2.134146,9.268293,0.990234,0.084473,0.111816
1762435482642370,-124.634148,-3.902439,6.097561,0.988770,0.085449,0.111328
1762435482652481,-127.500000,-12.865854,2.012195,0.987793,0.083496,0.110352
1762435482662593,-112.804878,-8.109756,-5.487805,0.988281,0.081055,0.111328
1762435482672706,-120.914635,-8.353659,-9.512196,0.989746,0.079102,0.113281
1762435482682818,-131.463425,-12.987805,-6.829268,0.990234,0.075684,0.115723
1762435482692930,-125.060982,-10.853659,-12.317074,0.989258,0.070801,0.117188
1762435482703043,-101.463417,-17.560976,-19.146341,0.988281,0.066406,0.118652
1762435482713155,-82.134148,-29.695122,-19.268293,0.987793,0.062988,0.119629
1762435482723268,-86.707321,-28.597561,-21.951220,0.988770,0.059082,0.119629
1762435482733379,-83.780487,-29.695122,-21.524391,0.989746,0.054688,0.118164
1762435482743492,-43.353661,-21.097561,-20.121952,0.989746,0.048828,0.116699
1762435482753605,-0.914634,-10.121951,-24.268293,0.989746,0.044434,0.116699
1762435482763717,18.414635,-9.207317,-23.902439,0.989746,0.041992,0.117676
1762435482773829,26.463415,-17.865854,-21.219513,0.989746,0.039551,0.119141
1762435482783941,34.085365,-19.573172,-23.353659,0.989746,0.035645,0.120117
1762435482794053,79.573174,-10.182927,-20.487804,0.991211,0.032227,0.120117
1762435482804166,120.792686,-18.658537,-19.512196,0.992676,0.031250,0.120605
1762435482814278,137.804886,-16.341463,-20.426830,0.993164,0.032715,0.121094
1762435482824390,130.060974,-19.146341,-15.365854,0.993164,0.035156,0.121582
1762435482834502,121.951225,-25.426830,-15.182927,0.993164,0.038086,0.120117
1762435482844615,123.780487,-17.743902,-18.780489,0.993164,0.042480,0.118652
1762435482854727,102.621956,-11.158537,-17.682928,0.992188,0.048828,0.116699
1762435482864841,61.951221,-9.024390,-20.609756,0.991699,0.055176,0.115234
1762435482874952,25.121952,-15.426829,-23.597561,0.991699,0.061035,0.113281
1762435482885064,9.878049,-14.085366,-20.121952,0.992676,0.065918,0.111328
1762435482895176,-2.439024,-20.060976,-21.280489,0.993652,0.069824,0.109863
1762435482905289,-6.707317,-14.207317,-22.134148,0.994141,0.073242,0.109375
1762435482915402,-20.365854,-15.853659,-20.121952,0.994141,0.077148,0.109375
1762435482925514,-36.219513,-18.170732,-23.292683,0.994141,0.080078,0.107422
1762435482935626,-46.585365,-19.939024,-22.195122,0.994629,0.082520,0.104980
1762435482945738,-49.634148,-12.560976,-17.073172,0.993164,0.084473,0.101562
1762435482955850,-62.134148,-14.390244,-19.146341,0.993164,0.085938,0.098145
1762435482965963,-83.536591,-15.426829,-18.780489,0.992188,0.086914,0.094727
1762435482976077,-107.621956,-8.475610,-16.097561,0.992676,0.086426,0.091797
1762435482986187,-100.975609,-5.182927,-16.646341,0.993164,0.083984,0.089844
1762435482996300,-67.682930,-5.548780,-11.890244,0.993164,0.080078,0.089355
1762435483006412,-46.097561,-4.512195,-6.341464,0.994141,0.077148,0.090820
1762435483016524,-42.560978,-5.000000,-4.451220,0.994629,0.074219,0.092285
1762435483026638,-17.926830,-5.304878,1.463415,0.994629,0.070312,0.093262
1762435483036749,17.073172,-3.780488,4.573171,0.994629,0.067871,0.093262
1762435483046861,27.439026,-0.975610,4.146341,0.994141,0.066895,0.093262
1762435483056973,22.378050,-0.731707,7.926829,0.993164,0.066895,0.093262
1762435483067086,10.670732,1.768293,8.353659,0.992676,0.066895,0.093750
1762435483077198,14.146341,3.414634,8.597561,0.992188,0.066406,0.095215
1762435483087313,26.402439,2.926829,13.841464,0.992188,0.066895,0.096680
1762435483097422,33.231709,10.365854,15.487805,0.993164,0.067383,0.099609
1762435483107535,32.012196,12.073171,16.646341,0.994141,0.068359,0.102539
1762435483117648,38.780487,9.146341,20.121952,0.994629,0.068848,0.104492
1762435483127759,47.500000,14.695123,19.512196,0.995117,0.070312,0.105469
1762435483137872,37.560978,16.768293,20.792683,0.995117,0.072754,0.105957
1762435483147984,29.024391,15.365854,23.414635,0.995117,0.075684,0.105469
1762435483158096,5.304878,10.975610,19.756098,0.994629,0.078125,0.104492
1762435483168209,-11.890244,18.536587,20.365854,0.994141,0.080566,0.102539
1762435483178321,-27.987806,18.841463,20.914635,0.993164,0.082031,0.101074
1762435483188433,-34.451221,20.975611,16.646341,0.993164,0.082520,0.099609
1762435483198545,-41.219513,16.585365,18.231709,0.993652,0.082520,0.098145
1762435483208658,-35.487804,17.012196,21.524391,0.994629,0.081543,0.096680
1762435483218770,-29.573172,15.365854,19.024391,0.995117,0.079590,0.095215
1762435483228882,-21.341463,14.146341,19.817074,0.996094,0.077637,0.093750
1762435483238995,-12.012196,16.585365,20.000000,0.996582,0.075684,0.092285
1762435483249107,-6.402439,21.097561,17.500000,0.995605,0.073730,0.090332
1762435483259219,-5.487805,21.524391,19.024391,0.993652,0.071289,0.089844
1762435483269332,-5.792683,20.121952,17.621952,0.993164,0.068848,0.087402
1762435483279444,-2.804878,16.158537,16.280489,0.993652,0.064941,0.085938
1762435483289557,73.963417,2.439024,31.707317,0.996094,0.064941,0.086914
1762435483299668,48.231709,6.524390,32.621952,0.998535,0.064453,0.087891
1762435483309781,64.207321,21.158537,23.841463,0.999512,0.062500,0.091309
1762435483319893,86.524391,30.975611,21.829269,1.000488,0.063477,0.093750
1762435483330005,117.195122,45.914635,17.500000,0.997559,0.064453,0.100098
1762435483340118,72.560974,34.451221,14.756098,0.995605,0.065918,0.104004
1762435483350230,-3.048780,30.487806,14.573171,0.992676,0.068848,0.105469
1762435483360342,-20.792683,23.231709,9.390244,0.991699,0.070312,0.106934
1762435483370455,14.939025,10.670732,5.060976,0.990234,0.068848,0.109375
1762435483380567,44.756100,29.329269,2.743902,0.991211,0.066895,0.112793
1762435483390680,9.207317,3.780488,-1.890244,0.991699,0.066406,0.118652
1762435483400793,-14.573171,10.792684,0.304878,0.992676,0.065430,0.122070
1762435483410904,1.341463,22.865854,0.670732,0.991699,0.061523,0.124512
1762435483421016,28.902439,3.902439,-9.207317,0.990234,0.058594,0.125000
1762435483431129,41.036587,-0.731707,-12.256098,0.989258,0.060059,0.125000
1762435483441241,16.219513,-1.829268,-8.353659,0.989258,0.061523,0.124023
1762435483451353,-6.280488,-1.219512,-8.902439,0.989746,0.058594,0.121094
1762435483461465,25.853659,-2.073171,-10.060976,0.989258,0.055176,0.118652
1762435483471578,64.024391,13.353659,-11.890244,0.987793,0.054688,0.117676
1762435483481690,46.951221,12.621951,-13.109756,0.986816,0.057129,0.119141
1762435483491802,4.878049,-17.682928,-11.402439,0.986328,0.058594,0.121582
1762435483501914,-0.914634,-31.524391,-13.536586,0.986328,0.058105,0.122559
1762435483512028,36.829269,-15.487805,-17.682928,0.987305,0.057129,0.123535
1762435483522139,67.012199,-17.256098,-19.085367,0.988281,0.058105,0.125000
1762435483532251,35.182926,-29.878050,-21.768293,0.989258,0.062988,0.125977
1762435483542364,-15.000000,-25.975611,-19.817074,0.988281,0.066895,0.125488
1762435483552476,-30.487806,-28.353659,-18.719513,0.986816,0.068848,0.124023
1762435483562589,-25.426830,-28.292683,-26.036587,0.986816,0.071777,0.121582
1762435483572700,-44.146343,-24.268293,-26.158537,0.987793,0.076172,0.120605
1762435483582813,-80.304878,-15.548780,-20.487804,0.988770,0.078613,0.119629
1762435483592925,-104.207321,-17.804878,-23.658537,0.989258,0.078125,0.120605
1762435483603037,-67.804878,-21.097561,-26.158537,0.989746,0.074219,0.121582
1762435483613151,-83.353661,-17.865854,-22.500000,0.993164,0.072754,0.121094
1762435483623264,-40.609756,-5.792683,-22.865854,0.993652,0.072754,0.121094
1762435483633374,-36.768295,-8.231708,-17.621952,0.993164,0.068848,0.119141
1762435483643487,5.914634,-17.256098,-15.000000,0.990723,0.064453,0.117676
1762435483653599,2.987805,-42.012196,-16.158537,0.989746,0.063477,0.114746
1762435483663712,25.243902,-27.500000,-5.182927,0.989746,0.063477,0.112793
1762435483673825,23.597561,-34.329269,-0.731707,0.988770,0.060059,0.111816
1762435483683936,50.853661,-40.914635,-4.024390,0.990234,0.058594,0.111816
1762435483694048,57.743904,-34.390244,1.646342,0.990723,0.061035,0.111816
1762435483704160,66.402443,-7.987805,6.585366,0.992188,0.063477,0.112793
1762435483714273,49.146343,-21.707317,4.634147,0.991699,0.063477,0.112793
1762435483724385,49.390244,-15.487805,6.463415,0.991211,0.068359,0.111816
1762435483734500,45.426830,-18.292683,7.317073,0.990723,0.073242,0.111816
1762435483744610,-12.317074,-14.329268,9.817074,0.990234,0.076660,0.109863
1762435483754722,6.524390,-5.365854,11.524390,0.989258,0.079590,0.109863
1762435483764834,-40.548782,-47.317074,7.439024,0.992676,0.083008,0.109863
1762435483774947,-73.109756,-20.670732,10.731708,0.996582,0.087891,0.107422
1762435483785059,-69.268295,-4.207317,11.829268,0.996094,0.087891,0.108398
1762435483795171,-51.585365,4.573171,3.963415,0.994629,0.088379,0.109375
1762435483805283,-34.085365,-16.158537,-2.073171,0.993652,0.092285,0.109375
1762435483815396,-135.000000,-29.329269,8.109756,0.995605,0.095703,0.105957
1762435483825508,-167.743912,5.060976,13.597561,0.992676,0.093262,0.100586
1762435483835621,-114.756104,-0.731707,5.243903,0.991699,0.087402,0.096680
1762435483845734,-68.292686,-13.231708,0.243902,0.992188,0.087891,0.092773
1762435483855845,-100.121956,3.902439,6.768293,0.993164,0.089355,0.090332
1762435483865957,-112.134148,12.195122,18.841463,0.994141,0.083008,0.088867
1762435483876070,-62.804878,1.890244,14.817074,0.991699,0.073730,0.085938
1762435483886182,1.097561,-3.475610,6.890244,0.992676,0.069336,0.085449
1762435483896294,16.036585,3.109756,14.939025,0.992188,0.068848,0.086426
1762435483906406,-30.304878,-8.780488,19.817074,0.996094,0.066406,0.087891
1762435483916519,-20.365854,-27.865854,17.987804,0.996094,0.062500,0.087891
1762435483926631,63.719513,5.243903,15.914635,0.997070,0.059082,0.086426
1762435483936744,112.926834,31.219513,15.182927,0.997070,0.058105,0.087402
1762435483946856,77.195122,16.646341,12.987805,0.996094,0.061523,0.088379
1762435483956967,33.719513,3.231707,17.134148,0.994141,0.064453,0.089844
1762435483967080,20.426830,27.926830,15.853659,0.993164,0.063477,0.088867
1762435483977192,46.524391,24.451220,10.121951,0.996094,0.060547,0.090820
1762435483987305,84.756096,26.280489,9.573171,0.998047,0.061035,0.091309
1762435483997417,75.975609,60.060978,9.634147,1.000000,0.063477,0.095215
1762435484007529,46.951221,41.707317,10.304878,0.999512,0.062500,0.099121
1762435484017642,54.146343,23.292683,4.817073,0.998047,0.060547,0.101562
1762435484027754,73.414635,22.500000,-2.378049,0.997559,0.060059,0.103027
1762435484037866,77.378052,41.158539,-0.853659,0.997559,0.060059,0.102539
1762435484047980,58.963417,25.121952,1.829268,0.999512,0.060547,0.100586
1762435484058091,64.878052,35.548782,-1.219512,0.995117,0.061035,0.098145
1762435484068203,75.060974,44.817074,-1.097561,0.994629,0.059570,0.095703
1762435484078315,78.414635,16.097561,-2.743902,0.993164,0.060547,0.094727
1762435484088429,53.780491,14.573171,-7.134147,0.993164,0.063477,0.093750
1762435484098540,24.329269,24.024391,1.158537,0.995605,0.063477,0.095215
1762435484108652,74.085365,32.987804,-3.536585,0.994141,0.061523,0.096191
1762435484118764,96.280487,9.451220,-13.719513,0.997559,0.061523,0.099609
1762435484128877,84.512199,29.085367,-7.804878,0.995117,0.066406,0.100098
1762435484138989,39.390244,29.634148,-5.975610,0.996094,0.067383,0.102539
1762435484149102,39.146343,7.621952,-11.280488,0.992676,0.067871,0.101562
1762435484159216,26.463415,1.890244,-11.890244,0.991211,0.071777,0.102051
1762435484169326,19.695122,18.719513,-8.414635,0.992188,0.076660,0.102051
1762435484179438,-15.792684,8.475610,-10.060976,0.990723,0.078125,0.105469
1762435484189551,-21.280489,0.975610,-9.634147,0.992676,0.078613,0.108398
1762435484199663,-23.658537,10.426829,-12.012196,0.991211,0.079590,0.112793
1762435484209777,-30.670732,16.463415,-12.621951,0.992188,0.079590,0.117188
1762435484219888,-32.560978,18.536587,-10.365854,0.990234,0.080078,0.120117
1762435484230000,-60.304878,-10.914635,-12.500000,0.989746,0.081055,0.123535
1762435484240112,-49.634148,-6.951220,-9.085366,0.989258,0.081543,0.123535
1762435484250224,-48.231709,-8.048780,-6.585366,0.988770,0.079102,0.125000
1762435484260337,-34.329269,-13.963415,-8.414635,0.989258,0.078613,0.124512
1762435484270451,-34.573170,-15.000000,-5.000000,0.989258,0.078125,0.125977
1762435484280561,-47.134148,-16.524391,-1.158537,0.990723,0.077637,0.125977
1762435484290674,-44.390244,1.768293,-1.402439,0.989258,0.076172,0.125977
1762435484300786,-15.548780,0.548781,-1.280488,0.986328,0.073730,0.126953
1762435484310898,-2.378049,-2.743902,-1.890244,0.982422,0.073730,0.127441
1762435484321010,-49.329269,-18.475611,-0.914634,0.982422,0.075684,0.126953
1762435484331123,-62.012196,-28.841465,5.670732,0.980957,0.074219,0.125488
1762435484341234,-30.975611,-26.097561,3.414634,0.981934,0.070801,0.122559
1762435484351347,17.317074,-22.317074,1.097561,0.983887,0.068848,0.121094
1762435484361459,25.060976,-18.902439,5.304878,0.982910,0.070312,0.120605
1762435484371572,0.121951,-20.792683,7.560976,0.983398,0.071289,0.121582
1762435484381684,-38.902439,-37.987804,5.243903,0.983398,0.071777,0.118164
1762435484391796,-18.231709,-41.097561,6.158537,0.985352,0.073242,0.115723
1762435484401909,14.756098,-21.646341,5.365854,0.984863,0.074219,0.111816
1762435484412021,-8.780488,-15.304878,5.304878,0.986816,0.076172,0.111816
1762435484422133,-42.621952,-50.609756,5.487805,0.984375,0.079590,0.112793
1762435484432246,-74.207321,-15.609756,2.378049,0.988281,0.083008,0.111816
1762435484442358,-77.134148,-40.853661,6.768293,0.989258,0.082520,0.113770
1762435484452470,-27.195122,9.634147,3.536585,0.990723,0.081055,0.106934
1762435484462583,-45.365856,3.475610,-2.073171,0.992188,0.079590,0.109375
1762435484472696,-28.658537,-0.609756,-2.134146,0.987793,0.083008,0.106934
1762435484482807,-122.073174,-34.878048,3.292683,0.988770,0.078613,0.109375
1762435484492919,-91.158539,-3.292683,4.085366,0.984863,0.076660,0.105469
1762435484503032,-111.158539,-57.317074,-4.634147,0.989258,0.072754,0.107910
1762435484513144,-14.695123,-30.609756,1.158537,0.993652,0.071289,0.105469
1762435484523256,-21.829269,-9.573171,-3.048780,0.994629,0.068359,0.107910
1762435484533369,7.073171,-25.853659,3.170732,0.999023,0.064941,0.110840
1762435484543481,12.560976,-30.365854,-2.865854,0.994141,0.064941,0.109375
1762435484553593,5.243903,-25.243902,-3.231707,0.998047,0.063965,0.111816
1762435484563705,4.146341,-19.024391,1.707317,0.994629,0.063477,0.106934
1762435484573818,-4.329268,-22.073172,-1.646342,1.001953,0.063965,0.107422
1762435484583932,2.134146,-28.109756,0.243902,1.001953,0.064941,0.102051
1762435484594042,6.646342,18.780489,0.548781,1.008301,0.062500,0.101562
1762435484604155,16.707317,-12.621951,0.000000,1.011230,0.061035,0.102539
1762435484614268,19.024391,25.426830,-0.121951,1.010254,0.062500,0.102539
1762435484624379,42.134148,28.475611,7.987805,1.013184,0.063965,0.106445
1762435484634492,5.182927,-20.670732,-5.304878,1.013184,0.064941,0.103027
1762435484644604,12.439025,-18.719513,-6.219512,1.020020,0.065430,0.104004
1762435484654716,48.231709,5.365854,4.451220,1.020020,0.065918,0.099609
1762435484664829,29.451220,12.195122,-3.170732,1.025879,0.065430,0.100586
1762435484674941,44.939026,-16.463415,-10.670732,1.028809,0.071289,0.096191
1762435484685053,10.182927,37.865856,-4.695122,1.036621,0.072754,0.090332
1762435484695167,53.292683,60.000000,10.304878,1.041504,0.069336,0.082520
1762435484705278,47.804878,91.219513,-0.731707,1.045410,0.068848,0.064453
1762435484715390,79.634148,121.585365,-11.768293,1.050293,0.068848,0.057617
1762435484725502,66.768295,120.365860,-0.548781,1.051270,0.069336,0.049805
1762435484735614,29.268293,89.024391,22.621952,1.060059,0.062988,0.043945
1762435484745728,132.743912,93.536591,12.195122,1.058594,0.056152,0.031250
1762435484755839,230.182938,124.024391,-22.012196,1.058594,0.050293,0.032715
1762435484765951,164.573181,94.756104,-0.304878,1.063477,0.036621,0.036133
1762435484776064,158.719513,122.743904,-2.256098,1.053711,0.028320,0.031250
1762435484786176,143.292679,122.012199,-12.621951,1.047363,0.025391,0.034180
1762435484796288,381.158539,68.658539,19.085367,1.034180,0.032715,0.034180
1762435484806400,418.414642,94.146347,-10.609756,1.020996,0.026855,0.028809
1762435484816513,612.378052,61.829269,-25.853659,1.015137,0.028809,0.032715
1762435484826625,483.170746,43.902439,-3.963415,1.012207,0.030762,0.028320
1762435484836737,70.731712,145.975616,-29.878050,1.011230,0.034668,0.029785
1762435484846850,207.256104,99.329269,-26.707317,1.000000,0.048828,0.044434
1762435484856962,242.621964,66.829269,12.439025,0.973633,0.072266,0.069824
1762435484867074,1472.439087,316.158539,55.304878,0.944336,0.104492,0.093262
1762435484877186,539.451233,-328.109772,99.085365,0.976074,0.148926,0.119629
1762435484887299,-353.109772,-329.146362,-12.195122,0.958984,0.155762,0.113770
1762435484897411,-809.634155,738.963440,-17.439024,1.006836,0.133789,0.099609
1762435484907523,-799.939026,96.341469,-38.475609,1.035645,0.127930,0.082031
1762435484917635,-84.817078,49.817074,-27.012196,1.023438,0.179199,0.038574
1762435484927748,139.085373,143.658539,1.219512,1.045410,0.192871,0.059570
1762435484937860,-1109.329346,-50.914635,23.231709,0.977051,0.150391,0.067871
1762435484947972,-65.609756,-38.719513,6.768293,0.959473,0.120605,0.090820
1762435484958085,20.365854,126.219513,22.378050,0.919922,0.114258,0.085449
1762435484968197,845.670776,209.390244,135.548782,0.901367,0.136230,0.105957
1762435484978309,318.475616,-175.304886,112.621956,0.907227,0.137695,0.137695
1762435484988422,996.219543,-219.451218,150.121948,0.869141,0.129883,0.102051
1762435484998534,635.487793,21.341463,160.243912,0.886719,0.107422,0.096680
1762435485008647,1040.792725,-103.353661,171.707321,0.892578,0.088867,0.102539
1762435485018758,592.073181,-124.817078,196.097565,0.926270,0.149414,0.084473
1762435485028871,-327.987823,-48.292683,171.463425,0.929688,0.119629,0.076660
1762435485038983,503.170746,-110.975609,102.317078,0.955566,0.112793,0.073730
1762435485049095,418.902435,30.487806,80.121956,0.954102,0.132324,0.076660
1762435485059208,-61.036587,23.902439,106.280487,0.976074,0.148438,0.113770
1762435485069320,244.024399,-144.390244,145.365860,0.949707,0.149414,0.117188
1762435485079432,310.365875,-2.073171,186.524399,0.955078,0.151855,0.126465
1762435485089544,123.475616,3.597561,189.085373,0.940430,0.151855,0.130859
1762435485099656,231.463425,-43.475613,170.365860,0.956055,0.172363,0.127930
1762435485109768,208.841461,-9.390244,238.292694,0.967285,0.208008,0.120605
1762435485119883,5.121951,53.414635,288.170746,0.980469,0.217773,0.120605
1762435485129994,115.853661,-88.292686,248.414642,0.998535,0.195312,0.106445
1762435485140106,261.646362,37.317074,208.231705,1.023926,0.199707,0.109863
1762435485150218,-23.048780,90.426834,202.865860,1.046875,0.206055,0.103516
1762435485160330,128.841461,46.280487,249.085373,1.054688,0.197754,0.107422
1762435485170444,14.756098,-20.792683,200.975616,1.041016,0.182129,0.114258
1762435485180555,-146.524399,104.573174,140.000000,1.016113,0.178711,0.107910
1762435485190667,-242.073181,-14.146341,115.182930,1.004883,0.178223,0.125488
1762435485200779,-985.487854,-173.292694,49.634148,0.983398,0.175781,0.129883
1762435485210892,-667.621948,-37.500000,29.817074,0.980957,0.154297,0.134277
1762435485221004,-619.207336,-207.682938,-7.743903,0.987793,0.116211,0.149902
1762435485231119,-174.085373,-88.780487,-26.646341,0.992676,0.087891,0.136719
1762435485241228,-63.414635,52.195122,-5.609756,1.014160,0.076172,0.143066
1762435485251341,-115.365860,-16.829269,0.365854,1.013184,0.057617,0.128906
1762435485261453,30.000000,53.353661,15.975610,1.010742,0.032715,0.121094
1762435485271566,32.560978,7.621952,-56.219513,0.987305,0.020996,0.115234
1762435485281678,-20.731709,135.304886,-103.109756,0.976562,0.020020,0.100098
1762435485291790,-91.585365,12.378049,-142.195129,0.980957,0.019531,0.098145
1762435485301902,-143.597565,-13.597561,-138.353668,0.987305,0.005371,0.073242
1762435485312014,-63.475613,13.536586,-127.743904,1.003906,-0.016602,0.060059
1762435485322127,217.682938,131.280487,-121.158539,1.010254,-0.027344,0.032715
1762435485332240,302.378052,204.329269,-124.329269,1.008789,-0.020508,0.026855
1762435485342351,168.231705,69.207321,-150.609756,1.006836,-0.019043,0.030762
1762435485352464,-5.182927,-32.682926,-160.060974,0.986816,-0.029785,0.019531
1762435485362576,-40.975609,-41.524391,-213.231720,0.977051,-0.042480,0.007324
1762435485372688,84.390244,-128.658539,-230.548782,0.993164,-0.046875,-0.021973
1762435485382800,221.097565,-35.000000,-198.292694,1.001465,-0.040527,-0.051758
1762435485392913,439.146362,31.707317,-157.743912,1.018066,-0.052246,-0.064453
1762435485403025,999.512207,23.597561,-156.890244,1.005859,-0.065430,-0.071777
1762435485413137,1072.134155,-53.353661,-193.475616,1.000977,-0.046875,-0.058594
1762435485423250,1154.268311,-88.170731,-184.329269,0.998047,0.000977,-0.053711
1762435485433363,957.439026,-71.036591,-177.256104,1.011230,0.062500,-0.046875
1762435485443474,385.792694,-9.695122,-185.914642,1.027832,0.148438,-0.041016
1762435485453586,-388.170746,113.414635,-200.792694,1.034668,0.182129,-0.002930
1762435485463699,-625.121948,4.634147,-222.378052,1.025391,0.189941,0.038574
1762435485473811,-725.975647,36.585365,-252.682938,1.022461,0.165039,0.082520
1762435485483924,-290.243896,69.573174,-239.451218,1.016113,0.157227,0.124023
1762435485494035,-196.097565,45.060978,-209.207321,1.023438,0.176758,0.144043
1762435485504148,171.036591,-85.304878,-160.426834,1.027832,0.179199,0.127930
1762435485514260,-65.182930,-23.109756,-171.585373,1.027344,0.164062,0.082031
1762435485524372,10.365854,73.963417,-146.036591,1.039551,0.154785,0.026367
1762435485534485,-21.829269,210.243912,-115.060982,1.034668,0.159180,-0.020996
1762435485544599,-194.268295,220.853668,-70.975609,1.010254,0.156738,-0.033203
1762435485554709,-95.000000,59.085369,2.378049,0.975586,0.129883,0.013184
1762435485564821,29.817074,15.243903,16.219513,0.966309,0.139648,-0.005371
1762435485574934,39.329269,-10.182927,81.768295,0.983887,0.127930,-0.011719
1762435485585046,160.243912,6.524390,97.743904,0.992676,0.104980,-0.022461
1762435485595160,903.414673,122.439026,106.524391,0.993652,0.081543,-0.027832
1762435485605271,750.000000,74.817078,160.792694,0.981934,0.083496,-0.019043
1762435485615383,643.048767,-17.743902,205.000000,0.975098,0.102051,-0.015625
1762435485625495,657.256104,-56.890244,211.829269,0.965332,0.121094,-0.022949
1762435485635607,605.487793,-151.219513,229.329269,0.964355,0.140625,-0.049805
1762435485645720,403.902435,15.243903,202.012207,0.986328,0.184082,-0.097656
1762435485655832,-119.512199,169.268295,119.268295,1.015625,0.212891,-0.122070
1762435485665944,-300.060974,201.951218,86.158539,1.007324,0.221191,-0.127930
1762435485676057,-231.036591,282.256104,96.890244,0.997559,0.228027,-0.104492
1762435485686169,-345.000000,131.890244,80.792686,0.981445,0.244141,-0.054688
1762435485696281,-311.036591,20.365854,106.219513,0.968262,0.260254,-0.001953
1762435485706393,-323.170746,-9.146341,105.670731,0.953613,0.280273,0.028809
1762435485716506,-864.756104,-94.268295,87.621956,0.944336,0.279297,0.052246
1762435485726618,-1120.426880,-154.268295,75.609756,0.961914,0.310547,0.057617
1762435485736730,-1227.561035,-73.353661,144.634155,0.994141,0.332520,0.037598
1762435485746843,-1018.780518,-15.060976,202.804886,1.003418,0.308594,0.008301
1762435485756955,-716.524414,-8.353659,181.524399,0.993164,0.282715,-0.025879
1762435485767067,-554.207336,-30.060976,197.012207,0.980469,0.240723,-0.052246
1762435485777180,-386.524414,-92.134148,158.963425,0.962402,0.187988,-0.073730
1762435485787292,-97.621956,-34.573170,108.780487,0.962402,0.149414,-0.087891
1762435485797404,-41.951221,-3.902439,101.524391,0.994629,0.125000,-0.082031
1762435485807516,107.073174,-17.926830,218.963425,1.013672,0.097656,-0.066895
1762435485817628,307.682922,81.158539,209.939026,1.017578,0.059570,-0.039551
1762435485827741,1000.121948,24.939026,249.878052,1.029785,0.043457,-0.006348
1762435485837853,167.500000,-25.853659,208.292694,1.005859,0.030762,0.022949
1762435485847965,74.634148,-133.414642,184.024399,0.997070,0.009766,0.032715
1762435485858079,131.951218,-130.975616,123.658539,0.976562,-0.009766,0.020020
1762435485868190,167.195129,-136.524399,43.353661,0.987305,-0.009277,-0.001953
1762435485878302,228.048782,-16.951220,122.865860,1.015137,0.002930,-0.065430
1762435485888414,288.780487,61.280491,78.231712,1.005859,-0.000488,-0.077148
1762435485898526,546.707336,106.829269,61.890244,1.013672,-0.001465,-0.100586
1762435485908640,514.573181,33.109756,108.231712,1.010742,0.015137,-0.083984
1762435485918751,53.475613,-21.402439,39.878048,1.012207,0.024414,-0.060547
1762435485928863,316.219513,-11.402439,68.414635,1.019531,0.016602,-0.036621
1762435485938976,419.268311,52.439026,-3.719512,1.012207,0.001465,0.007324
1762435485949088,648.292725,-123.109756,-6.402439,1.014648,0.014648,0.031250
1762435485959200,189.817078,-36.341465,-44.817074,0.972168,0.025391,0.037598
1762435485969316,199.329269,-91.890244,-119.817078,0.965332,0.030762,0.045410
1762435485979425,-38.597561,-239.939026,-139.085373,0.945801,0.072266,0.037598
1762435485989537,-733.658569,-152.317078,-157.012192,0.958008,0.083496,0.044922
1762435485999649,-729.817078,-150.121948,-190.914642,0.986328,0.090820,0.050293
1762435486009762,-907.926880,-45.670734,-220.060974,1.024902,0.080566,0.073730
1762435486019874,-23.048780,84.695122,-158.414642,1.037109,0.055176,0.098145
1762435486029986,-170.792694,187.195129,-236.890244,1.030273,0.033203,0.116211
1762435486040098,-46.463417,60.792683,-267.682922,1.020020,0.039062,0.122559
1762435486050211,-1123.841431,7.012195,-281.402435,1.006348,0.056641,0.133301
1762435486060323,-594.024414,-75.487808,-273.658539,1.005371,0.017090,0.110352
1762435486070435,-785.975647,21.280489,-270.792694,1.061523,-0.016113,0.064941
1762435486080548,253.841476,78.170731,-130.731705,1.086426,-0.000977,-0.002930
1762435486090660,-90.670731,794.024414,-224.146347,1.104980,-0.005371,-0.023438
1762435486100772,199.329269,102.682930,-222.317078,1.068848,-0.002930,-0.020508
1762435486110884,691.585388,325.975616,-121.280487,1.023926,0.020508,-0.038086
1762435486120996,122.134148,23.963415,-104.634148,1.015625,0.032227,0.013184
1762435486131109,109.024391,-201.707321,-94.085365,0.984375,0.053223,0.015625
1762435486141221,1335.609741,-82.012199,-66.646339,0.980469,0.083496,0.034180
1762435486151333,627.439026,-20.792683,11.646341,0.989746,0.085938,0.052246
1762435486161446,754.390259,-97.500000,-34.817074,0.978516,0.098145,0.049805
1762435486171560,795.304871,6.646342,-28.536587,0.972168,0.135254,0.051758
1762435486181670,-244.329269,13.353659,-88.414635,0.988770,0.185059,0.055176
1762435486191782,-656.341492,-55.121952,-147.621948,0.976562,0.206055,0.053223
1762435486201895,-1079.817139,-65.304878,-161.585373,1.012695,0.222656,0.060059
1762435486212007,-1000.243896,32.682926,-144.512192,1.026367,0.205078,0.053223
1762435486222120,-545.670715,154.451218,-162.012192,1.040039,0.189941,0.066406
1762435486232232,-505.000000,145.060974,-113.597565,1.044922,0.216797,0.073242
1762435486242344,-737.682922,198.048782,-108.414635,1.030273,0.229492,0.083008
1762435486252456,-613.902466,-106.219513,-103.353661,1.005859,0.210449,0.085449
1762435486262568,-524.085388,-118.597565,-92.987808,0.988281,0.206055,0.069824
1762435486272680,-275.914642,-60.853661,-43.048782,0.990234,0.200195,0.056152
1762435486282796,-277.012207,-60.365856,8.048780,0.987305,0.189453,0.040527
1762435486292905,-266.768311,-7.926829,14.390244,0.974609,0.172852,0.030762
1762435486303017,-262.317078,-26.646341,-27.804878,0.979980,0.149414,0.030273
1762435486313130,-284.817078,-189.390244,-19.512196,0.986816,0.138672,0.022461
1762435486323242,-244.207321,-40.365856,18.780489,1.001465,0.123047,0.015625
1762435486333354,-56.280491,40.792683,49.207317,1.004883,0.101562,0.017090
1762435486343466,48.048782,-36.951221,16.829269,0.992676,0.083008,0.025391
1762435486353578,22.317074,-180.914642,5.853659,0.995117,0.082031,0.040039
1762435486363691,-66.646339,-121.890244,36.707317,0.988281,0.086426,0.046875
1762435486373803,39.451221,-128.719513,68.414635,0.996582,0.070801,0.062012
1762435486383915,378.475616,-171.158539,66.219513,0.983887,0.058594,0.073730
1762435486394028,829.634155,-77.560974,63.902439,0.985352,0.068359,0.097656
1762435486404140,334.939026,-173.475616,85.548782,0.992676,0.089844,0.116699
1762435486414252,76.524391,-149.634155,84.817078,0.999512,0.105469,0.135254
1762435486424364,11.585366,-32.195122,87.317078,1.012207,0.118652,0.147949
1762435486434477,-76.402443,-62.682930,76.585365,1.010742,0.126953,0.162109
1762435486444589,-113.475609,-58.109756,65.243904,1.013672,0.136719,0.168457
1762435486454701,-179.695129,-3.597561,59.390244,1.013184,0.152344,0.178223
1762435486464813,-360.426849,-70.000000,53.292683,1.012695,0.162598,0.184082
1762435486474926,-383.414642,-190.365860,62.195122,1.006348,0.156738,0.184570
1762435486485040,-216.219513,-85.609756,31.219513,1.000000,0.149414,0.175293
1762435486495150,-81.280487,-105.060982,11.524390,1.005859,0.151367,0.166992
1762435486505262,-260.121948,-190.243912,25.304878,1.005371,0.166992,0.150391
1762435486515375,-366.402435,-134.512192,22.926830,1.013184,0.168945,0.132324
1762435486525487,-314.268311,-140.548782,4.573171,1.008789,0.159668,0.105469
1762435486535600,-238.719513,-81.158539,-26.219513,1.009277,0.158203,0.081055
1762435486545711,-210.000000,-54.695122,-35.304878,1.014160,0.166504,0.063477
1762435486555824,-332.987823,-23.658537,-24.512196,1.010254,0.173340,0.043457
1762435486565936,-440.548798,-68.414635,-19.573172,1.008789,0.168457,0.035645
1762435486576048,-386.097565,-72.500000,-51.097561,1.002930,0.160156,0.025391
1762435486586161,-294.573181,-61.646343,-83.902443,1.000977,0.151367,0.018066
1762435486596273,-257.926849,-81.585365,-90.792686,1.009277,0.150879,0.015137
1762435486606385,-311.524384,-72.560974,-69.573174,1.018555,0.147461,0.014648
1762435486616497,-366.524414,-87.743904,-51.036587,1.006836,0.143066,0.011719
1762435486626610,-239.207321,8.963415,-52.256100,1.001953,0.129395,0.018066
1762435486636722,-193.841461,-61.341465,-66.463417,0.990234,0.124512,0.011230
1762435486646834,-270.304871,-60.731709,-75.975609,0.993164,0.122559,0.001953
1762435486656946,-312.439026,-87.317078,-52.743904,1.005371,0.110840,-0.018066
1762435486667059,-235.121964,-0.304878,-31.097561,1.010254,0.087402,-0.029297
1762435486677171,-3.902439,68.048782,3.963415,1.015137,0.067383,-0.029297
1762435486687284,111.463417,88.902443,-11.951220,1.006836,0.059570,-0.016602
1762435486697395,156.463425,48.780487,-15.304878,1.004883,0.054688,0.011719
1762435486707508,107.073174,-1.097561,4.329268,0.999023,0.047363,0.031738
1762435486717621,210.426834,-3.475610,-0.182927,1.003418,0.029297,0.053223
1762435486727732,782.560974,56.585365,-0.792683,1.005371,0.018066,0.060547
1762435486737845,673.780518,88.414635,0.914634,1.007324,0.016602,0.067383
1762435486747957,634.878052,80.670731,6.402439,1.003906,0.020996,0.063477
1762435486758069,586.890259,94.207321,-12.743903,0.999512,0.031738,0.055176
1762435486768181,520.670715,104.146347,-1.524390,1.003418,0.047852,0.046387
1762435486778294,376.219513,93.109756,9.756098,1.002930,0.066895,0.038086
1762435486788406,199.024399,232.743912,6.768293,1.019043,0.069824,0.020508
1762435486798520,288.475616,193.048782,12.134147,1.025391,0.067383,0.003418
1762435486808630,340.914642,204.329269,2.500000,1.019531,0.082520,0.012695
1762435486818743,198.109756,214.146347,-1.402439,1.021484,0.092773,0.014160
1762435486828855,105.487808,147.865860,7.134147,1.022461,0.090820,-0.000977
1762435486838967,184.390244,153.841461,-0.975610,1.020020,0.091797,-0.017578
1762435486849079,264.268311,142.012192,-10.609756,1.011230,0.099121,-0.023926
1762435486859192,191.280487,91.585365,-19.207317,1.002930,0.118164,-0.034180
1762435486869304,69.268295,26.280489,-19.939024,0.997559,0.130859,-0.039062
1762435486879416,15.304878,-22.012196,-20.853659,0.998535,0.142090,-0.050293
1762435486889529,-37.500000,31.341465,-21.036587,0.993164,0.144043,-0.059570
1762435486899641,40.365856,5.426829,-30.731709,0.994141,0.147949,-0.049805
1762435486909753,-50.000000,-11.280488,-29.329269,0.990234,0.169922,-0.026367
1762435486919865,-401.707336,0.000000,-30.426830,0.990234,0.183105,0.005859
1762435486929977,-818.536621,-48.170734,-34.756100,0.995117,0.182617,0.033691
1762435486940090,-621.402466,45.548782,-23.170732,0.997070,0.185059,0.061523
1762435486950202,-730.975647,82.500000,-19.878050,0.998047,0.189453,0.093750
1762435486960314,-834.817078,10.548780,8.292683,1.000488,0.171875,0.111328
1762435486970427,-541.585388,67.012199,40.365856,0.999023,0.143066,0.112793
1762435486980539,-191.768295,79.817078,62.378052,0.994141,0.120117,0.112305
1762435486990651,-84.512199,11.585366,85.121956,0.985840,0.088379,0.105957
1762435487000765,258.536591,50.121952,91.097565,0.978516,0.069336,0.094238
1762435487010875,383.658539,120.548782,96.707321,0.968750,0.067383,0.097656
1762435487020988,219.695129,24.024391,106.219513,0.979492,0.068359,0.120605
1762435487031100,39.512196,-81.646347,123.597565,0.977051,0.063965,0.128418
1762435487041212,322.134155,35.487804,125.853661,0.983398,0.038574,0.132324
1762435487051326,983.597595,62.621952,122.682930,0.991211,0.027832,0.144043
1762435487061437,468.780487,-40.060978,118.292686,0.983398,0.046387,0.148926
1762435487071549,73.353661,-102.926834,120.487808,0.978516,0.065430,0.131836
1762435487081661,106.280487,-93.658539,101.585365,0.977539,0.064941,0.105469
1762435487091773,260.914642,-100.000000,61.463417,0.966309,0.069824,0.085449
1762435487101886,46.036587,-196.585373,-24.024391,0.931152,0.080566,0.114746
1762435487111998,-47.560978,-290.914642,27.378050,0.929199,0.118652,0.158203
1762435487122111,-936.341492,-355.731720,1.097561,0.931641,0.111816,0.177734
1762435487132223,-222.195129,-296.036591,27.926830,0.969727,0.073730,0.201172
1762435487142335,322.134155,-227.378052,-22.987806,1.001465,0.065918,0.201172
1762435487152447,979.512207,-81.951218,35.060978,1.022949,0.078613,0.197754
1762435487162559,-71.341469,-141.219513,15.548780,1.009277,0.103027,0.173828
1762435487172672,-220.914642,37.865856,-17.378050,0.999512,0.123047,0.167480
1762435487182784,-516.402466,12.560976,-46.402439,0.996582,0.144531,0.125977
1762435487192896,-562.987793,32.073170,11.890244,1.006348,0.132812,0.100098
1762435487203010,-126.463417,95.975609,-18.841463,0.992188,0.118164,0.056641
1762435487213121,74.329269,229.024399,-71.646339,1.011719,0.101562,0.069824
1762435487223233,61.097561,70.365852,-62.439026,1.014648,0.110352,0.069824
1762435487233345,-259.939026,55.731709,-67.500000,1.016602,0.114258,0.097168
1762435487243457,-287.804871,21.585367,-43.048782,1.018066,0.115234,0.101074
1762435487253570,-184.451218,-33.963417,-76.768295,1.000977,0.101562,0.095703
1762435487263682,1.280488,-73.048782,-120.853661,0.998535,0.090332,0.079102
1762435487273794,39.024391,-152.073181,-131.890244,0.991211,0.098145,0.049805
1762435487283907,-84.085365,-96.463417,-104.268295,0.986328,0.114746,0.016113
1762435487294019,-216.341461,-60.487808,-37.865856,1.000977,0.111328,-0.018066
1762435487304131,-216.036591,-55.243904,-35.182926,0.989746,0.102051,-0.048828
1762435487314243,-94.329269,36.341465,-71.463417,0.990234,0.092285,-0.069336
1762435487324355,-9.207317,105.121956,-50.060978,0.996094,0.091797,-0.077148
1762435487334468,-75.304878,97.621956,-41.768295,0.990234,0.095215,-0.058105
1762435487344580,-167.926834,-58.963417,-73.170731,0.990234,0.074707,-0.004395
1762435487354692,17.987804,-119.939026,-59.634148,0.992676,0.055176,0.033203
1762435487364804,348.475616,85.548782,-54.878052,1.009277,0.044434,0.071777
1762435487374917,310.000000,-57.073174,-23.963415,1.014160,0.024902,0.106445
1762435487385029,673.536621,-72.012199,-56.402439,1.012207,0.032227,0.096680
1762435487395141,636.402466,239.634155,-65.975609,1.008301,0.059082,0.093750
1762435487405255,224.024399,97.134148,-44.390244,1.007324,0.084473,0.095215
1762435487415366,166.829269,101.951225,-34.756100,0.993164,0.111328,0.074219
1762435487425478,91.463417,289.634155,-20.548780,0.995117,0.127441,0.071289
1762435487435590,-98.414635,233.475616,-11.585366,1.000977,0.144043,0.083008
1762435487445702,-285.000000,125.182930,10.365854,1.003418,0.124512,0.118652
1762435487455815,20.182928,135.731705,2.865854,0.994629,0.101074,0.142578
1762435487465927,290.670746,182.865860,-6.158537,1.010742,0.083496,0.176270
1762435487476039,275.609772,-3.963415,-4.817073,0.987793,0.105957,0.179688
1762435487486152,123.048782,5.975610,29.024391,0.990234,0.107422,0.176758
1762435487496264,124.390244,-167.560974,35.182926,0.967773,0.099609,0.143066
1762435487506376,332.439026,-46.341465,-17.073172,0.959961,0.101074,0.103516
1762435487516491,300.914642,-18.353659,25.487806,0.976562,0.115234,0.067871
1762435487526600,49.512196,52.073174,65.000000,0.973633,0.134766,0.037598
1762435487536713,-54.512196,50.487804,39.268295,0.991699,0.132324,0.019043
1762435487546825,-43.719513,60.609756,56.524391,0.989746,0.125000,0.000488
1762435487556937,67.073174,252.621964,44.512196,0.988281,0.117188,0.003418
1762435487567049,177.378052,154.268295,38.292683,1.001465,0.115723,0.021973
1762435487577162,78.963417,74.268295,41.402439,0.979004,0.129395,0.039062
1762435487587274,-18.231709,64.268295,51.280491,0.978027,0.125977,0.061035
1762435487597386,96.402443,-68.353661,58.292683,0.964844,0.119141,0.070801
1762435487607499,277.378052,-21.158537,52.012196,0.948242,0.125488,0.076172
1762435487617611,321.768311,-65.426834,68.353661,0.960449,0.134277,0.082031
1762435487627723,188.353668,-124.756104,68.841469,0.957031,0.148438,0.078125
1762435487637835,80.365852,0.853659,61.158539,0.976074,0.156250,0.082031
1762435487647947,-10.914635,29.329269,74.695122,0.986816,0.161133,0.086426
1762435487658060,-28.231709,97.378052,71.646339,0.993164,0.160645,0.101074
1762435487668172,-12.256098,124.207321,64.451218,0.994141,0.164551,0.114258
1762435487678284,-182.378052,147.682938,60.304878,0.987305,0.172363,0.139160
1762435487688396,-310.365875,76.341469,60.487808,0.981934,0.166992,0.159180
1762435487698509,-257.560974,-6.585366,56.524391,0.974609,0.150879,0.178223
1762435487708621,-27.134148,29.878050,52.865856,0.968750,0.138184,0.187988
1762435487718736,60.670734,20.000000,65.304878,0.973145,0.132324,0.192871
1762435487728846,-17.987804,-74.756096,75.670731,0.974609,0.128418,0.188477
1762435487738958,-17.743902,-43.170734,81.219513,0.972656,0.117676,0.177246
1762435487749070,85.548782,-2.256098,72.804878,0.974121,0.100586,0.158691
1762435487759182,174.756104,-22.134148,60.853661,0.978516,0.092285,0.142090
1762435487769295,130.182922,11.463415,63.353661,0.981934,0.092773,0.125977
1762435487779407,67.926834,26.890245,81.524391,0.988281,0.086426,0.116211
1762435487789519,109.207321,6.158537,81.463417,0.985840,0.073242,0.106934
1762435487799631,229.817078,12.012196,66.585365,0.984375,0.062012,0.105957
1762435487809745,272.500000,23.597561,61.341465,0.981445,0.061523,0.109863
1762435487819856,185.548782,-25.365854,62.743904,0.982422,0.063477,0.117188
1762435487829968,138.231705,-94.634148,65.000000,0.979492,0.059570,0.120117
1762435487840081,206.890244,-79.878052,45.365856,0.975098,0.052734,0.120117
1762435487850193,318.841461,-59.573174,32.317074,0.977051,0.048828,0.116699
1762435487860305,289.878052,-88.963417,28.719513,0.982910,0.055176,0.111328
1762435487870417,189.024399,-96.341469,32.256100,0.994141,0.067383,0.103027
1762435487880529,147.682938,-47.378052,32.865856,1.000000,0.074219,0.097168
1762435487890642,164.390244,24.878050,13.841464,1.002930,0.078125,0.091797
1762435487900754,186.585373,62.560978,-7.256098,1.000000,0.084961,0.096680
1762435487910866,19.146341,-3.048780,-13.902439,0.999023,0.104980,0.109863
1762435487920982,-257.012207,-25.609756,-15.365854,0.995605,0.116699,0.124023
1762435487931090,-384.817078,-44.390244,-36.890244,0.992676,0.112305,0.138672
1762435487941203,-232.134155,-24.634148,-65.243904,0.990234,0.106445,0.149902
1762435487951315,-188.231705,-35.548782,-86.951225,0.996094,0.116211,0.159180
1762435487961427,-310.426849,-61.219513,-75.670731,1.001465,0.133301,0.160156
1762435487971539,-442.560974,-66.524391,-62.256100,1.000977,0.137695,0.152832
1762435487981652,-386.463409,-43.597561,-83.414635,0.999023,0.132812,0.138184
1762435487991764,-304.817078,-12.743903,-107.865860,0.999023,0.136230,0.122070
1762435488001876,-366.036591,4.817073,-96.280487,1.003906,0.144531,0.108398
1762435488011989,-465.000000,14.207317,-91.097565,1.008789,0.142578,0.095215
1762435488022101,-444.390259,17.195122,-93.719513,1.011719,0.128906,0.084961
1762435488032213,-315.243896,46.951221,-99.390244,1.009277,0.115723,0.076172
1762435488042325,-199.085373,89.451225,-120.426834,1.010254,0.109863,0.077148
1762435488052438,-255.426834,23.963415,-116.707321,1.010742,0.109863,0.080078
1762435488062550,-370.121948,-21.768293,-99.756104,1.007324,0.106934,0.081055
1762435488072663,-303.414642,-18.597561,-100.487808,1.005371,0.093750,0.077148
1762435488082774,-170.060974,-17.987804,-109.817078,1.001465,0.082031,0.068359
1762435488092887,-95.243904,-24.207317,-100.731712,1.004883,0.078125,0.063477
1762435488102999,-124.512199,-16.341463,-78.475609,1.004883,0.079102,0.055176
1762435488113111,-164.390244,-11.951220,-62.012196,1.002441,0.071289,0.052734
1762435488123225,-63.597561,-24.512196,-58.048782,0.999512,0.058105,0.048828
1762435488133336,75.914635,11.036586,-63.048782,0.996094,0.051758,0.054688
1762435488143448,130.853668,6.524390,-46.097561,0.996582,0.053223,0.068848
1762435488153560,130.060974,-5.304878,-28.902439,0.997559,0.053223,0.085938
1762435488163673,183.658539,-14.878049,-29.451220,0.995605,0.051758,0.107422
1762435488173785,299.878052,1.341463,-26.524391,0.991699,0.054199,0.126465
1762435488183896,375.365875,5.914634,-20.182928,0.989258,0.062012,0.143066
1762435488194009,306.097565,-2.439024,-19.756098,0.984863,0.078125,0.154297
1762435488204121,152.378052,-3.658537,-7.439024,0.984863,0.097656,0.162109
1762435488214234,28.719513,0.609756,3.658537,0.983398,0.110352,0.164551
1762435488224346,11.585366,18.536587,4.085366,0.984863,0.116211,0.163574
1762435488234458,46.097561,46.158539,8.536586,0.985352,0.123047,0.161133
1762435488244570,9.695122,50.914635,18.109756,0.986816,0.131836,0.160156
1762435488254682,-49.268295,33.170731,27.560976,0.983887,0.136230,0.158203
1762435488264795,-65.487808,11.890244,30.243904,0.979980,0.134277,0.152344
1762435488274907,-5.060976,-15.548780,29.878050,0.979004,0.133789,0.144531
1762435488285019,28.719513,-3.536585,37.743904,0.976562,0.137695,0.130859
1762435488295132,11.463415,-12.134147,51.524391,0.976074,0.140625,0.120117
1762435488305244,-14.024390,-38.353661,52.073174,0.973145,0.142578,0.105957
1762435488315356,-36.829269,-53.536587,50.914635,0.975586,0.142578,0.090820
1762435488325468,-22.500000,-42.317074,60.304878,0.974121,0.145508,0.076172
1762435488335580,-22.500000,-9.695122,62.743904,0.977051,0.146484,0.063965
1762435488345693,-32.987804,-21.829269,66.707321,0.978516,0.146973,0.057617
1762435488355805,-69.390244,-39.268295,63.048782,0.975586,0.148926,0.054688
1762435488365917,-107.865860,-17.987804,58.780491,0.980957,0.147949,0.053711
1762435488376029,-126.402443,-40.609756,62.134148,0.982910,0.146484,0.055176
1762435488386142,-93.536591,-15.731708,61.646343,0.985352,0.143555,0.060059
1762435488396254,-111.158539,-42.256100,61.829269,0.988770,0.141113,0.065430
1762435488406366,-126.951225,25.548780,59.695122,0.986816,0.140137,0.071289
1762435488416479,-174.512192,-34.878048,55.487804,0.994629,0.137695,0.081055
1762435488426591,-121.524391,8.597561,62.439026,0.991211,0.133789,0.088379
1762435488436703,-97.195122,19.085367,54.207317,0.997070,0.123047,0.098633
1762435488446815,-32.012196,-14.390244,62.682930,0.994141,0.113770,0.110352
1762435488456927,-65.975609,26.280489,51.036587,0.992188,0.105957,0.121582
1762435488467040,-52.012196,26.402439,62.865856,0.993652,0.099609,0.134766
1762435488477152,-35.121952,15.487805,51.951221,0.988281,0.094238,0.142090
1762435488487264,45.609756,15.365854,43.963417,0.992676,0.083496,0.150879
1762435488497376,132.195129,18.292683,38.841465,0.988770,0.075195,0.151855
1762435488507488,149.695129,35.304878,35.060978,0.995605,0.066406,0.154297
1762435488517601,118.414635,4.634147,45.670734,0.996582,0.061523,0.148926
1762435488527713,119.878052,28.414635,42.378048,0.994141,0.057129,0.145020
1762435488537825,191.585373,36.707317,38.902439,0.996094,0.052734,0.135254
1762435488547937,214.573181,1.463415,26.890245,0.991699,0.053223,0.129883
1762435488558050,213.109756,35.853661,28.353659,0.989746,0.054688,0.123047
1762435488568162,156.280487,-0.548781,20.304878,0.989746,0.054199,0.119141
1762435488578274,159.939026,-9.756098,11.341464,0.987793,0.050781,0.113770
1762435488588386,179.024399,-9.878049,-0.060976,0.991699,0.046875,0.105957
1762435488598499,197.987808,-3.231707,-3.109756,0.994141,0.046387,0.099609
1762435488608611,188.902451,10.975610,-7.439024,0.997070,0.048340,0.090820
1762435488618725,173.902451,-3.048780,-7.378049,0.998047,0.050781,0.084961
1762435488628835,160.000000,6.585366,-23.658537,0.995117,0.053711,0.075195
1762435488638948,192.378052,17.743902,-29.268293,0.994629,0.057617,0.071289
1762435488649060,154.939026,6.829268,-32.804878,0.991211,0.066406,0.066406
1762435488659173,94.756104,11.158537,-38.719513,0.992188,0.073730,0.067871
1762435488669285,65.548782,-9.573171,-42.621952,0.992188,0.081055,0.069336
1762435488679397,39.878048,-13.902439,-52.439026,0.995605,0.084961,0.076660
1762435488689509,59.451221,0.487805,-57.560978,0.998047,0.090332,0.084961
1762435488699621,12.256098,0.121951,-62.500000,1.001953,0.097656,0.096191
1762435488709733,-62.317074,-15.121952,-67.012199,1.001465,0.106445,0.105469
1762435488719845,-137.621948,-1.707317,-75.609756,0.999512,0.114258,0.113770
1762435488729958,-183.231705,0.548781,-79.329269,0.998535,0.122070,0.119629
1762435488740070,-252.195129,-5.914634,-81.646347,0.997070,0.130371,0.124512
1762435488750182,-302.378052,3.231707,-77.926834,0.997559,0.132812,0.127930
1762435488760294,-316.219513,18.048780,-76.646347,0.998535,0.130371,0.130859
1762435488770407,-271.219513,20.548780,-73.902443,1.001953,0.124023,0.132812
1762435488780519,-195.853668,33.841465,-64.817078,1.000000,0.118164,0.135254
1762435488790631,-151.463425,47.560978,-62.134148,0.999512,0.112793,0.137207
1762435488800743,-127.073174,25.609756,-58.109756,0.994141,0.107910,0.140625
1762435488810856,-114.634148,-3.902439,-53.780491,0.990234,0.101562,0.139648
1762435488820970,-49.695122,-10.975610,-45.243904,0.986328,0.095215,0.139160
1762435488831080,1.951220,-12.134147,-40.182926,0.984863,0.089844,0.132324
1762435488841192,58.963417,-18.719513,-27.378050,0.984375,0.084961,0.130371
1762435488851305,76.097565,-37.682926,-23.231709,0.982422,0.083008,0.123535
1762435488861417,105.365860,-14.329268,-15.975610,0.985352,0.080078,0.118652
1762435488871531,138.475616,-43.719513,-5.487805,0.983887,0.080078,0.112793
1762435488881641,184.390244,-6.158537,0.426829,0.984375,0.081543,0.109375
1762435488891754,197.804886,-8.475610,8.048780,0.980957,0.085938,0.107422
1762435488901867,177.743912,-36.829269,14.024390,0.979980,0.092773,0.108887
1762435488911979,159.390244,-36.402439,19.024391,0.977051,0.102051,0.109863
1762435488922090,126.646347,-30.731709,23.597561,0.977051,0.108887,0.113281
1762435488932203,118.292686,-29.695122,21.585367,0.978516,0.115723,0.114746
1762435488942315,70.243904,-50.731709,19.756098,0.982422,0.125000,0.118164
1762435488952427,34.207317,8.536586,27.317074,0.984375,0.135254,0.116699
1762435488962539,-22.134148,-12.500000,28.536587,0.983398,0.142578,0.121582
1762435488972651,-73.658539,-37.195122,22.500000,0.979980,0.152832,0.120117
1762435488982764,-165.609756,-7.012195,18.902439,0.980469,0.162598,0.119629
1762435488992876,-241.158539,-46.036587,21.036587,0.982422,0.169434,0.118164
1762435489002988,-219.695129,-23.170732,30.000000,0.983398,0.171875,0.114746
1762435489013100,-171.402451,19.268293,33.231709,0.981934,0.168945,0.114746
1762435489023215,-196.097565,-33.170731,20.609756,0.980469,0.168457,0.115723
1762435489033325,-248.536591,-57.560978,21.158537,0.979492,0.171875,0.117188
1762435489043437,-304.085388,-38.658539,33.780487,0.982910,0.168945,0.112305
1762435489053550,-220.609756,-35.914635,34.512196,0.981445,0.160156,0.111816
1762435489063662,-133.536591,-46.646343,19.634148,0.981445,0.150879,0.104492
1762435489073774,-129.512192,-20.000000,28.353659,0.983398,0.147461,0.103516
1762435489083886,-184.390244,-42.621952,38.109756,0.980957,0.145996,0.100098
1762435489093999,-189.268295,-46.341465,40.914635,0.983887,0.136230,0.097656
1762435489104110,-124.573174,-52.378052,33.536587,0.980469,0.125977,0.093750
1762435489114224,-24.268293,-27.134148,24.146341,0.983398,0.116699,0.095215
1762435489124335,-9.085366,-11.036586,32.560978,0.987305,0.110352,0.096680
1762435489134447,-70.426834,-60.060978,38.353661,0.989258,0.104492,0.101074
1762435489144560,-36.280487,55.670734,39.878048,0.991699,0.095703,0.093262
1762435489154672,43.963417,-9.939025,27.804878,0.996582,0.086426,0.090332
1762435489164784,204.573181,68.719513,40.975609,0.992188,0.082031,0.082031
1762435489174896,155.304886,37.804878,37.195122,0.991699,0.077637,0.082031
1762435489185008,89.390244,13.475610,46.158539,0.985352,0.078125,0.082031
1762435489195121,62.439026,-26.585367,29.329269,0.982910,0.077637,0.084473
1762435489205233,161.036591,-22.073172,30.121952,0.987305,0.073242,0.090332
1762435489215345,237.804886,3.353659,20.060976,0.990234,0.066895,0.093750
1762435489225460,275.182922,-2.134146,24.695122,1.000977,0.063477,0.101562
1762435489235570,247.439026,-4.329268,26.402439,0.996094,0.066895,0.101562
1762435489245682,231.280487,43.780487,19.207317,0.995117,0.067871,0.103516
1762435489255794,223.597565,-3.841464,2.621951,0.991211,0.074219,0.095215
1762435489265907,182.621948,0.243902,-10.000000,0.988770,0.084961,0.092285
1762435489276019,141.646347,36.402439,-0.975610,0.991211,0.094727,0.085449
1762435489286131,65.426834,31.951220,-7.682927,0.997559,0.097656,0.083496
1762435489296243,59.024391,14.695123,-10.853659,1.002930,0.097656,0.084473
1762435489306355,97.195122,68.841469,-12.621951,1.006348,0.098633,0.090332
1762435489316469,122.317078,84.939026,-18.780489,1.007812,0.101074,0.099609
1762435489326580,35.731709,33.536587,-31.341465,1.003418,0.105957,0.107910
1762435489336692,-32.865856,16.036585,-36.463417,0.996094,0.110352,0.113770
1762435489346804,-45.670734,25.853659,-45.914635,0.988281,0.112305,0.113770
1762435489356917,-61.036587,-15.121952,-53.902439,0.987793,0.113770,0.110352
1762435489367030,-72.621956,-27.378050,-47.560978,0.989258,0.116211,0.102539
1762435489377141,-76.890244,17.439024,-37.743904,0.995117,0.114746,0.095703
1762435489387253,-36.768295,22.987806,-28.109756,0.999512,0.108398,0.090332
1762435489397365,5.548780,35.304878,-35.548782,0.997070,0.103516,0.091309
1762435489407478,-42.439026,41.097561,-47.317074,1.001953,0.102051,0.092285
1762435489417590,-53.719513,17.439024,-35.182926,0.999512,0.101562,0.098633
1762435489427702,-51.097561,37.865856,-32.987804,0.997559,0.096191,0.099609
1762435489437814,10.243902,35.487804,-32.987804,0.994629,0.089844,0.104492
1762435489447927,68.231712,33.475609,-35.731709,0.985352,0.090820,0.106445
1762435489458039,34.146343,0.548781,-27.987806,0.986328,0.093750,0.112793
1762435489468151,-1.829268,-19.390244,-19.024391,0.980469,0.094238,0.111816
1762435489478264,45.609756,-12.987805,-20.731709,0.982910,0.089844,0.116211
1762435489488375,128.658539,-30.182928,-14.390244,0.984863,0.087891,0.116699
1762435489498488,143.109756,25.548780,-10.121951,0.986328,0.089844,0.121094
1762435489508600,117.865860,7.682927,-7.378049,0.989258,0.092773,0.123535
1762435489518714,41.280487,-14.451220,-9.451220,0.987305,0.097168,0.125977
1762435489528824,38.414635,28.292683,-2.378049,0.985352,0.101074,0.125977
1762435489538937,64.085365,20.487804,-1.158537,0.983887,0.104492,0.126953
1762435489549049,19.451220,3.780488,-5.731708,0.980469,0.112793,0.127930
1762435489559161,-41.951221,6.829268,5.914634,0.980469,0.119141,0.129395
1762435489569273,-39.451221,-1.585366,12.560976,0.978516,0.120117,0.130859
1762435489579386,-20.304878,-22.682928,6.707317,0.978027,0.119629,0.131836
1762435489589498,16.707317,-8.719512,12.439025,0.978516,0.122559,0.132324
1762435489599610,-21.768293,-21.646341,14.634147,0.979980,0.125977,0.133789
1762435489609723,-61.280491,-52.439026,15.426829,0.981934,0.127441,0.131836
1762435489619835,-73.902443,-48.353661,17.682928,0.981934,0.127930,0.126953
1762435489629947,-53.475613,-18.597561,14.146341,0.983887,0.128418,0.121094
1762435489640059,-65.000000,-26.585367,14.512196,0.985352,0.131836,0.115723
1762435489650171,-107.439026,-23.414635,23.536587,0.985352,0.135254,0.110840
1762435489660284,-131.707321,-3.780488,25.060976,0.982910,0.135254,0.107422
1762435489670396,-138.292679,-20.853659,19.085367,0.980957,0.132812,0.107422
1762435489680507,-123.292686,-37.317074,19.085367,0.979980,0.131836,0.109375
1762435489690621,-137.256104,-22.012196,15.121952,0.981445,0.129395,0.111816
1762435489700732,-149.512192,-42.743904,17.378050,0.986816,0.123535,0.114258
1762435489710845,-96.402443,-42.621952,24.451220,0.988281,0.118164,0.114746
1762435489720959,-40.000000,-8.109756,20.792683,0.986328,0.113281,0.117676
1762435489731069,-61.524391,-16.951220,14.634147,0.987305,0.110352,0.116211
1762435489741181,-112.682930,-67.560974,13.719513,0.987305,0.109863,0.115234
1762435489751294,-123.536591,-35.487804,17.195122,0.989258,0.108398,0.106445
1762435489761406,-50.914635,-3.658537,29.207317,0.990723,0.102539,0.104004
1762435489771518,28.475611,15.121952,23.536587,0.989258,0.098633,0.099121
1762435489781631,38.597561,-10.670732,15.853659,0.990234,0.099121,0.106445
1762435489791742,-6.951220,6.707317,18.475611,0.984375,0.101074,0.110352
1762435489801855,-87.134148,-24.512196,13.292684,0.991699,0.093262,0.115234
1762435489811968,-19.390244,-25.975611,15.243903,0.988770,0.087891,0.113770
1762435489822079,74.390244,24.939026,6.829268,0.990723,0.086426,0.115723
1762435489832192,121.585365,1.768293,17.804878,0.991211,0.088379,0.117188
1762435489842304,17.865854,-20.853659,4.634147,0.988770,0.090820,0.114258
1762435489852417,-3.109756,-44.756100,9.939025,0.988770,0.090820,0.115723
1762435489862529,2.500000,-12.439025,2.865854,0.984375,0.090332,0.106445
1762435489872640,54.878052,5.243903,-3.658537,0.992676,0.087402,0.106445
1762435489882753,61.524391,-15.121952,-1.097561,0.993652,0.091797,0.101074
1762435489892865,17.134148,18.902439,2.134146,0.998535,0.091797,0.104004
1762435489902977,35.426830,20.000000,8.231708,0.997070,0.090820,0.103027
1762435489913089,41.158539,8.536586,-10.426829,0.995605,0.089844,0.107910
1762435489923201,55.426830,10.548780,-15.243903,0.993652,0.093750,0.109863
1762435489933314,-10.975610,0.609756,-15.548780,0.992188,0.098633,0.113770
1762435489943426,-35.426830,-2.621951,-14.634147,0.993164,0.098633,0.113281
1762435489953538,-57.195122,-5.792683,-26.951220,0.993164,0.097656,0.110352
1762435489963650,-13.780488,11.463415,-25.487806,0.995605,0.098633,0.106934
1762435489973762,-11.036586,35.548782,-22.804878,0.997559,0.101562,0.101562
1762435489983875,-41.524391,33.048782,-20.670732,0.997559,0.103516,0.101074
1762435489993987,-62.378052,34.390244,-23.048780,0.993652,0.103516,0.098633
1762435490004099,-46.158539,22.317074,-29.817074,0.992188,0.101074,0.100586
1762435490014214,-20.304878,30.182928,-30.182928,0.990234,0.100586,0.100098
1762435490024324,-35.182926,15.243903,-24.817074,0.992676,0.098145,0.104492
1762435490034436,-30.060976,-0.243902,-22.621952,0.992676,0.095215,0.105469
1762435490044548,-6.036585,11.280488,-27.621952,0.994629,0.090332,0.107422
1762435490054660,56.158539,5.853659,-22.012196,0.994629,0.087891,0.108398
1762435490064772,67.560974,18.658537,-22.987806,0.994141,0.087402,0.106934
1762435490074885,66.707321,17.012196,-17.439024,0.992676,0.086914,0.106445
1762435490084997,56.097561,8.963415,-14.512196,0.989258,0.087891,0.104492
1762435490095109,72.621956,18.536587,-14.329268,0.989258,0.087891,0.104004
1762435490105222,95.121956,21.463415,-10.731708,0.987793,0.089355,0.104004
1762435490115333,107.134148,27.439026,-5.365854,0.989258,0.090332,0.107910
1762435490125446,98.841469,22.804878,-5.243903,0.988281,0.090820,0.112793
1762435490135558,97.317078,13.109756,-2.804878,0.990234,0.090332,0.118652
1762435490145670,127.926834,22.621952,0.792683,0.988281,0.092773,0.123047
1762435490155783,122.804878,15.000000,-0.731707,0.988281,0.094727,0.127441
1762435490165895,118.231712,2.073171,2.378049,0.986328,0.099609,0.127930
1762435490176007,84.085365,-6.341464,1.646342,0.984863,0.104492,0.127930
1762435490186119,67.926834,3.353659,6.097561,0.984375,0.109375,0.125488
1762435490196231,43.841465,7.804878,9.146341,0.983887,0.112793,0.122070
1762435490206344,40.243904,18.353659,7.865854,0.984863,0.116699,0.119141
1762435490216456,-3.719512,3.231707,9.146341,0.985840,0.120117,0.117676
1762435490226568,-17.439024,19.329269,14.939025,0.986816,0.121094,0.115234
1762435490236681,-10.182927,23.231709,14.390244,0.986328,0.120605,0.114746
1762435490246793,-8.170732,5.060976,14.512196,0.985840,0.121094,0.114746
1762435490256905,-2.804878,4.085366,17.987804,0.983887,0.123047,0.115723
1762435490267017,-27.378050,-7.439024,16.463415,0.982422,0.123535,0.116699
1762435490277129,-48.414635,-30.365854,17.682928,0.981445,0.123047,0.115723
1762435490287241,-29.207317,-15.670732,20.304878,0.981934,0.121582,0.112793
1762435490297354,-27.256098,-15.243903,20.060976,0.983887,0.121094,0.109863
1762435490307467,-31.341465,-15.670732,24.451220,0.984863,0.121094,0.106445
1762435490317578,-25.731709,-9.268293,28.719513,0.985840,0.121094,0.104980
1762435490327690,-37.012196,-9.817074,27.134148,0.985352,0.118652,0.104492
1762435490337803,-30.975611,-6.646342,28.597561,0.984863,0.116699,0.106445
1762435490347915,-24.146341,-7.317073,28.780489,0.984863,0.114746,0.110352
1762435490358028,-29.268293,-11.463415,28.353659,0.986328,0.113770,0.114746
1762435490368139,-31.219513,-15.609756,25.914635,0.987305,0.109375,0.118164
1762435490378251,-11.585366,-19.817074,23.597561,0.989746,0.105469,0.122070
1762435490388364,13.048780,-2.682927,26.707317,0.990723,0.102539,0.123535
1762435490398476,37.012196,0.792683,33.170731,0.990723,0.101562,0.125977
1762435490408588,36.707317,-10.853659,27.682928,0.987793,0.102051,0.125977
1762435490418700,24.085367,-8.597561,21.158537,0.985352,0.100586,0.127930
1762435490428813,20.670732,-5.365854,24.695122,0.984375,0.098145,0.127930
1762435490438925,3.719512,-8.231708,20.548780,0.986328,0.095703,0.127441
1762435490449037,22.560976,0.487805,19.207317,0.987793,0.092773,0.125488
1762435490459149,43.597561,19.512196,20.487804,0.990723,0.089355,0.123047
1762435490469262,71.219513,15.060976,20.121952,0.991211,0.086426,0.122070
1762435490479374,74.390244,9.268293,17.012196,0.990234,0.085449,0.120117
1762435490489486,56.219513,9.329268,14.329268,0.988770,0.085449,0.119141
1762435490499598,47.317074,-6.951220,8.841464,0.987793,0.084961,0.116699
1762435490509713,51.097561,-10.121951,6.585366,0.988281,0.083496,0.112793
1762435490519823,58.048782,-1.585366,4.451220,0.988770,0.083008,0.108887
1762435490529935,64.268295,2.560976,1.097561,0.991211,0.083008,0.104492
1762435490540047,65.853661,4.024390,2.743902,0.992188,0.083984,0.100586
1762435490550159,56.402439,8.170732,0.731707,0.991211,0.085449,0.098145
1762435490560271,50.304878,6.585366,-5.731708,0.989746,0.086426,0.096191
1762435490570384,38.475609,-4.085366,-9.634147,0.989258,0.088867,0.096191
1762435490580496,21.036587,-6.707317,-12.743903,0.989258,0.091309,0.097656
1762435490590609,-1.219512,-9.024390,-15.853659,0.991211,0.092285,0.099609
1762435490600722,-4.817073,-6.829268,-17.195122,0.992676,0.092773,0.101562
1762435490610833,-2.743902,-0.426829,-22.439026,0.994141,0.093750,0.104492
1762435490620945,-11.646341,6.585366,-24.268293,0.994141,0.096680,0.106934
1762435490631057,-39.207317,9.024390,-25.548780,0.993164,0.099609,0.109863
1762435490641170,-73.292686,0.487805,-31.341465,0.992188,0.102051,0.111816
1762435490651282,-97.073174,0.304878,-32.682926,0.991699,0.103516,0.113281
1762435490661394,-98.536591,7.987805,-30.853659,0.992676,0.103027,0.114746
1762435490671506,-99.207321,8.719512,-34.024391,0.994629,0.102051,0.116699
1762435490681618,-94.939026,17.500000,-32.317074,0.996582,0.100586,0.118652
1762435490691730,-79.329269,26.646341,-28.963415,0.996582,0.098633,0.120605
1762435490701843,-54.695122,27.256098,-30.609756,0.994629,0.096680,0.122070
1762435490711955,-49.939026,19.817074,-30.853659,0.991211,0.095215,0.123047
1762435490722067,-52.500000,6.646342,-28.963415,0.988770,0.094727,0.123535
1762435490732179,-49.268295,-6.097561,-27.560976,0.987305,0.092773,0.122559
1762435490742292,-24.695122,-5.853659,-22.378050,0.987793,0.089355,0.120605
1762435490752404,16.219513,-8.536586,-19.024391,0.989258,0.086426,0.118652
1762435490762516,52.621952,-0.670732,-16.768293,0.990234,0.084473,0.116699
1762435490772628,62.256100,0.487805,-11.890244,0.990234,0.083496,0.115723
1762435490782740,59.329269,-1.585366,-11.097561,0.989746,0.083496,0.114258
1762435490792853,69.573174,-2.195122,-9.024390,0.987793,0.083984,0.113770
1762435490802967,77.987808,-1.097561,-4.329268,0.985840,0.085938,0.112305
1762435490813077,71.341469,-5.365854,-4.878049,0.984863,0.088867,0.111816
1762435490823189,59.939026,-10.121951,-2.926829,0.984375,0.092285,0.111816
1762435490833302,60.548782,-8.658537,3.658537,0.984863,0.095215,0.112793
1762435490843414,61.463417,-5.304878,2.012195,0.984863,0.096680,0.114258
1762435490853526,58.231709,-5.487805,1.646342,0.985840,0.100098,0.116211
1762435490863638,42.195122,-5.975610,6.951220,0.985352,0.105469,0.117676
1762435490873751,9.512196,-8.292683,6.402439,0.984863,0.109863,0.119629
1762435490883863,-11.402439,-18.231709,4.939024,0.984375,0.113281,0.119629
1762435490893976,-22.256098,-16.341463,5.609756,0.984375,0.117188,0.120117
1762435490904087,-44.390244,-11.402439,6.768293,0.985352,0.121094,0.119629
1762435490914199,-67.560974,-12.195122,10.121951,0.986816,0.123535,0.118652
1762435490924311,-82.195122,-11.524390,10.731708,0.987305,0.125488,0.118652
1762435490934424,-91.158539,-4.207317,9.878049,0.987305,0.126465,0.118164
1762435490944536,-97.682930,-3.719512,10.548780,0.986816,0.126465,0.117676
1762435490954648,-104.695122,-14.512196,10.060976,0.986816,0.126953,0.117676
1762435490964760,-112.256104,-7.012195,10.914635,0.985352,0.125977,0.117188
1762435490974872,-112.987808,-1.768293,12.987805,0.984863,0.122559,0.116211
1762435490984985,-98.841469,-17.256098,12.012196,0.984863,0.119629,0.113770
1762435490995097,-85.121956,-8.536586,13.841464,0.984375,0.117676,0.110840
1762435491005212,-69.451218,-8.902439,19.817074,0.985840,0.114258,0.109375
1762435491015321,-53.292683,-22.621952,18.048780,0.986328,0.109375,0.106934
1762435491025434,-34.573170,-20.365854,18.475611,0.986816,0.105957,0.106445
1762435491035546,-8.536586,-11.341464,24.268293,0.986816,0.103027,0.107422
1762435491045658,-0.670732,-15.000000,20.487804,0.987305,0.099121,0.107422
1762435491055770,10.000000,-19.024391,19.817074,0.987305,0.096191,0.107910
1762435491065883,25.914635,-15.426829,23.475611,0.986816,0.093750,0.108887
1762435491075995,36.402439,-0.914634,21.402439,0.987305,0.091309,0.108398
1762435491086107,43.109756,-20.975611,20.121952,0.987793,0.090332,0.108887
1762435491096221,50.975613,-14.390244,20.792683,0.988770,0.090332,0.109375
1762435491106332,40.975609,13.536586,14.695123,0.991211,0.087402,0.109375
1762435491116444,75.792686,-24.024391,20.487804,0.995117,0.086914,0.110352
1762435491126556,79.146347,19.512196,18.536587,0.993164,0.088379,0.109863
1762435491136668,57.256100,30.243904,11.097561,0.997559,0.087402,0.111816
1762435491146782,75.792686,4.451220,13.292684,0.993164,0.089355,0.113281
1762435491156893,42.317074,21.646341,6.280488,0.992188,0.091309,0.112793
1762435491167005,25.182928,28.475611,8.963415,0.991699,0.091797,0.112305
1762435491177117,12.621951,11.829268,-0.609756,0.988281,0.094238,0.109863
1762435491187230,20.670732,2.560976,-1.402439,0.992188,0.095215,0.109375
1762435491197341,9.756098,18.475611,-1.280488,0.990234,0.095215,0.104980
1762435491207454,36.280487,25.060976,-2.560976,0.994629,0.091797,0.104980
1762435491217566,29.207317,1.524390,-5.670732,0.993652,0.091797,0.101562
1762435491227679,12.743903,20.548780,-6.280488,0.993164,0.093262,0.102539
1762435491237790,24.329269,25.548780,-4.451220,0.991699,0.094238,0.100586
1762435491247903,-16.890244,-15.792684,-15.121952,0.992188,0.094238,0.100586
1762435491258015,3.597561,-0.609756,-13.719513,0.989258,0.095703,0.099121
1762435491268128,2.743902,24.451220,-15.914635,0.991211,0.095215,0.098633
1762435491278239,-16.707317,-6.646342,-16.646341,0.993164,0.094238,0.099121
1762435491288352,-20.670732,3.658537,-17.439024,0.991699,0.095215,0.099121
1762435491298466,-4.573171,28.292683,-13.475610,0.994629,0.094727,0.101562
1762435491308576,-17.012196,2.682927,-18.292683,0.992188,0.094238,0.103027
1762435491318688,4.085366,10.365854,-18.658537,0.993652,0.094238,0.106934
1762435491328800,-10.670732,5.914634,-16.768293,0.992188,0.095215,0.110352
1762435491338913,-22.560976,15.609756,-17.317074,0.991699,0.094238,0.115234
1762435491349025,-12.256098,-1.097561,-17.682928,0.990723,0.093262,0.117676
1762435491359137,-5.548780,10.731708,-18.414635,0.989746,0.094238,0.121582
1762435491369249,-8.963415,13.292684,-16.219513,0.989258,0.094238,0.122559
1762435491379361,-6.951220,-1.646342,-13.780488,0.989258,0.093750,0.125000
1762435491389475,-5.426829,2.317073,-15.548780,0.987793,0.094238,0.125488
1762435491399586,10.731708,13.292684,-10.548780,0.989746,0.093262,0.126465
1762435491409698,33.048782,-3.902439,-7.012195,0.986816,0.092773,0.127930
1762435491419810,-0.548781,8.658537,-15.000000,0.989746,0.092285,0.126465
1762435491429923,-0.670732,-3.658537,-7.926829,0.989258,0.092773,0.127441
1762435491440036,18.658537,5.731708,-3.414634,0.988770,0.092285,0.125000
1762435491450147,36.768295,14.695123,-4.878049,0.988770,0.091309,0.123535
1762435491460259,37.500000,0.487805,-5.243903,0.984863,0.094238,0.121094
1762435491470371,30.426830,-7.682927,-0.914634,0.985352,0.095703,0.120605
1762435491480484,3.109756,-12.195122,1.097561,0.982910,0.097168,0.117188
1762435491490596,20.792683,-9.390244,3.170732,0.982910,0.096191,0.117188
1762435491500708,48.353661,-28.414635,5.548780,0.983887,0.097168,0.114746
1762435491510820,24.634148,-7.560976,1.585366,0.985352,0.098633,0.114258
1762435491520932,11.585366,-27.195122,5.548780,0.987305,0.101074,0.114746
1762435491531045,2.804878,-23.780489,7.500000,0.988281,0.101562,0.112305
1762435491541157,12.012196,-3.109756,7.439024,0.986816,0.103027,0.112305
1762435491551269,5.670732,-3.353659,5.000000,0.985352,0.106934,0.111328
1762435491561382,-36.585365,-34.146343,5.060976,0.986328,0.112305,0.112305
1762435491571493,-80.243904,-20.426830,8.353659,0.984375,0.115723,0.111816
1762435491581606,-90.060974,-14.817074,7.256098,0.986816,0.114746,0.114258
1762435491591721,-78.780487,-23.048780,1.524390,0.988281,0.114258,0.113770
1762435491601830,-72.134148,2.195122,3.048780,0.989746,0.115234,0.116211
1762435491611942,-89.939026,5.670732,8.719512,0.990234,0.117188,0.117188
1762435491622055,-125.426834,-12.378049,4.146341,0.988770,0.116699,0.118652
1762435491632167,-119.756104,-19.939024,2.804878,0.986328,0.116211,0.118652
1762435491642279,-110.853661,-1.097561,1.097561,0.984375,0.115723,0.117188
1762435491652391,-112.195122,-12.621951,0.365854,0.986328,0.114746,0.116211
1762435491662503,-120.243904,-23.170732,4.329268,0.987305,0.112793,0.113281
1762435491672616,-101.768295,-6.097561,6.158537,0.989258,0.108398,0.111816
1762435491682729,-63.109756,-1.341463,4.329268,0.990234,0.104004,0.108887
1762435491692840,-37.743904,-1.890244,5.731708,0.990723,0.101074,0.108398
1762435491702952,-29.939026,0.792683,9.024390,0.988770,0.100098,0.108398
1762435491713065,-40.792683,-4.024390,6.951220,0.986328,0.097656,0.108398
1762435491723177,-31.402439,-23.719513,6.341464,0.985352,0.094727,0.108887
1762435491733290,-15.426829,-36.890244,2.560976,0.985352,0.092285,0.108398
1762435491743401,13.109756,-13.597561,4.756098,0.988281,0.089355,0.107910
1762435491753513,37.195122,-16.280489,9.756098,0.991699,0.085938,0.107910
1762435491763625,60.304878,-15.792684,8.719512,0.993164,0.084473,0.107910
1762435491773738,79.634148,6.646342,7.987805,0.992188,0.083496,0.108398
1762435491783850,77.804878,-3.353659,8.048780,0.992188,0.083984,0.109863
1762435491793962,59.390244,-0.121951,0.243902,0.990723,0.084961,0.109863
1762435491804074,49.573174,-21.097561,2.500000,0.993164,0.085938,0.110840
1762435491814187,82.378052,28.231709,11.646341,0.991211,0.086426,0.109863
1762435491824300,77.195122,13.658537,0.487805,0.992676,0.085449,0.112793
1762435491834411,79.939026,-3.048780,-2.317073,0.993652,0.087402,0.113281
1762435491844523,55.853661,18.719513,-1.036585,0.994629,0.089355,0.114746
1762435491854635,47.195122,27.256098,-0.609756,0.996582,0.087891,0.113770
1762435491864748,62.865856,15.000000,-5.609756,0.996094,0.087402,0.110840
1762435491874860,90.000000,31.829269,-4.695122,0.994629,0.089355,0.108887
1762435491884975,54.573174,35.792683,-3.597561,0.992676,0.092773,0.105957
1762435491895084,30.487806,13.719513,-4.329268,0.990723,0.095215,0.104004
1762435491905196,18.170732,-1.036585,-8.658537,0.989258,0.097168,0.101074
1762435491915309,20.548780,11.524390,-8.902439,0.989746,0.096191,0.099609
1762435491925422,47.682926,18.719513,-7.073171,0.992188,0.095703,0.097656
1762435491935533,39.268295,4.817073,-9.390244,0.994141,0.096191,0.098145
1762435491945645,21.890244,16.951220,-7.439024,0.992676,0.098145,0.097168
1762435491955758,24.756098,30.121952,-7.439024,0.991699,0.099121,0.097168
1762435491965870,29.634148,0.060976,-11.219513,0.989258,0.101074,0.097168
1762435491975984,6.158537,1.524390,-12.560976,0.985840,0.104492,0.097168
1762435491986094,-7.378049,5.243903,-8.292683,0.986816,0.106445,0.098633
1762435491996206,-27.804878,-11.219513,-10.365854,0.988281,0.105957,0.099121
1762435492006319,-20.000000,-6.341464,-8.780488,0.990234,0.104004,0.102539
1762435492026545,5.975610,22.987806,-6.768293,0.993652,0.103516,0.110352
1762435492036655,-14.268293,7.926829,-5.121951,0.991211,0.105469,0.114258
1762435492046768,-25.365854,18.963415,-4.146341,0.988770,0.106445,0.118652
1762435492056880,-28.353659,10.426829,-6.890244,0.985352,0.105957,0.121094
1762435492066992,-30.060976,-6.524390,-3.902439,0.984863,0.105957,0.124023
1762435492077104,-24.939026,8.658537,0.365854,0.985352,0.105469,0.125000
1762435492087216,-12.012196,9.146341,2.865854,0.986816,0.103027,0.126953
1762435492097328,19.756098,8.536586,6.829268,0.986328,0.100098,0.127441
1762435492107441,23.109756,6.463415,4.329268,0.987793,0.098145,0.128418
1762435492117553,19.329269,5.182927,4.695122,0.988281,0.097656,0.127441
1762435492127665,18.658537,1.219512,10.000000,0.988281,0.096680,0.126465
1762435492137777,31.768293,5.914634,11.829268,0.988281,0.094238,0.123047
1762435492147890,51.036587,13.292684,10.121951,0.986816,0.093262,0.120117
1762435492158002,70.243904,2.195122,16.402439,0.985352,0.095703,0.118164
1762435492168114,31.341465,5.914634,14.451220,0.982910,0.097168,0.115723
1762435492178229,20.731709,-13.048780,15.426829,0.983887,0.097168,0.115234
1762435492188338,46.158539,-19.024391,18.536587,0.982422,0.097168,0.112793
1762435492198451,45.548782,-2.317073,13.719513,0.984375,0.096680,0.113281
1762435492208563,41.829269,-18.048780,14.878049,0.986328,0.098145,0.112793
1762435492218675,31.951220,-21.158537,17.621952,0.988281,0.100098,0.111816
1762435492228788,22.439026,-12.743903,16.341463,0.987305,0.101562,0.111328
1762435492238900,25.975611,-10.304878,12.804878,0.986328,0.103516,0.110840
1762435492249012,11.585366,-18.048780,10.609756,0.986328,0.106934,0.110352
1762435492259124,-47.439026,-22.804878,10.365854,0.985840,0.111328,0.111328
1762435492269238,-74.817078,-10.365854,11.463415,0.986328,0.112793,0.112305
1762435492279348,-80.000000,-16.402439,5.609756,0.988281,0.111816,0.112793
1762435492289460,-71.585365,-6.951220,2.865854,0.989258,0.111816,0.114746
1762435492299573,-60.792683,3.780488,5.243903,0.990234,0.111328,0.117188
1762435492309685,-85.060974,1.768293,2.743902,0.990723,0.110352,0.119141
1762435492319797,-112.012199,-15.670732,0.670732,0.989258,0.109375,0.121094
1762435492329909,-93.780487,-13.292684,1.402439,0.989258,0.106934,0.121094
1762435492340022,-67.195122,-0.609756,-1.890244,0.988770,0.104980,0.120605
1762435492350134,-68.109756,-17.439024,-3.414634,0.990234,0.102539,0.120117
1762435492360247,-58.902439,-12.804878,0.853659,0.990723,0.100098,0.118164
1762435492370359,-47.073174,2.195122,-0.548781,0.991211,0.096191,0.116699
1762435492380470,-24.207317,-4.817073,0.609756,0.991699,0.092285,0.114746
1762435492390583,-7.621952,-2.439024,-2.073171,0.991211,0.089844,0.113281
1762435492400694,0.609756,0.731707,-3.658537,0.992188,0.087402,0.112305
1762435492410808,2.926829,2.500000,1.219512,0.990723,0.085449,0.110840
1762435492420919,20.548780,0.304878,0.487805,0.990723,0.082520,0.109375
1762435492431031,43.658539,2.378049,-4.085366,0.989258,0.081055,0.107910
1762435492441144,50.426830,-3.719512,-3.292683,0.988770,0.081055,0.107910
1762435492451256,53.658539,-11.524390,-1.341463,0.989258,0.080566,0.106445
1762435492461368,52.378052,-6.646342,-4.817073,0.989746,0.079590,0.105469
1762435492471480,69.817078,-9.634147,-2.317073,0.990723,0.079102,0.105469
1762435492481592,79.878052,-0.243902,-5.060976,0.990723,0.080566,0.104492
1762435492491705,72.500000,3.353659,-7.500000,0.992188,0.083496,0.104980
1762435492501817,56.890244,-3.841464,-4.451220,0.991211,0.086914,0.104004
1762435492511929,49.695122,3.902439,-6.951220,0.991211,0.089355,0.104004
1762435492522041,49.573174,3.597561,-10.182927,0.990234,0.092285,0.104980
1762435492532153,18.536587,-0.853659,-11.951220,0.991211,0.095703,0.106934
1762435492542266,0.121951,-1.280488,-12.073171,0.992676,0.099121,0.108398
1762435492552378,-10.304878,10.670732,-12.865854,0.993164,0.101074,0.110352
1762435492562492,-7.621952,11.097561,-13.597561,0.993652,0.101562,0.112305
1762435492572602,-17.195122,11.768293,-18.353659,0.992676,0.104004,0.113281
1762435492582714,-39.451221,10.182927,-17.317074,0.992188,0.106934,0.114258
1762435492592827,-68.170731,5.853659,-15.365854,0.991699,0.108398,0.113770
1762435492602939,-75.304878,6.707317,-18.841463,0.991699,0.107422,0.111816
1762435492613051,-48.780487,11.402439,-16.524391,0.991699,0.105957,0.109863
1762435492623163,-39.573174,22.560976,-13.353659,0.992188,0.105469,0.107422
1762435492633276,-44.512196,20.731709,-12.012196,0.992188,0.104492,0.106934
1762435492643388,-39.634148,9.329268,-8.597561,0.990234,0.102539,0.106934
1762435492653501,-23.292683,12.439025,-7.682927,0.988770,0.100098,0.106445
1762435492663612,-4.146341,10.243902,-8.475610,0.986816,0.097656,0.107422
1762435492673724,5.548780,-2.134146,-4.756098,0.986816,0.096191,0.107910
1762435492683837,7.621952,-4.817073,-2.012195,0.986328,0.095215,0.108398
1762435492693949,16.890244,-4.817073,-0.975610,0.986328,0.092773,0.107910
1762435492704062,44.695122,-5.060976,2.439024,0.986816,0.091309,0.106934
1762435492714174,60.914635,1.036585,3.780488,0.987793,0.092285,0.106445
1762435492724286,68.109756,3.414634,7.621952,0.986816,0.093262,0.106445
1762435492734398,61.219513,2.378049,9.451220,0.986816,0.094238,0.106934
1762435492744510,57.500000,-4.146341,9.268293,0.986328,0.095215,0.108887
1762435492754622,59.390244,0.304878,12.865854,0.985840,0.097168,0.111816
1762435492764734,57.682930,6.158537,13.963415,0.986816,0.098633,0.115234
1762435492774847,42.439026,-9.146341,10.060976,0.987793,0.101074,0.118652
1762435492784958,36.219513,0.426829,12.560976,0.987793,0.103027,0.121582
1762435492795071,22.378050,7.560976,13.536586,0.988281,0.104492,0.124023
1762435492805183,12.317074,4.695122,10.365854,0.988281,0.107422,0.124512
1762435492815295,-6.280488,-4.024390,11.097561,0.987305,0.110840,0.124023
1762435492825408,-38.597561,3.353659,10.975610,0.987793,0.113770,0.122559
1762435492835520,-61.768295,0.426829,9.573171,0.988281,0.114746,0.121094
1762435492845632,-63.475613,3.048780,11.463415,0.988770,0.115234,0.118164
1762435492855747,-63.597561,16.280489,9.939025,0.989746,0.115234,0.115723
1762435492865856,-61.951221,16.646341,8.475610,0.989258,0.115723,0.114258
1762435492875969,-68.292686,2.987805,10.975610,0.989258,0.114746,0.112793
1762435492886081,-85.792686,-2.560976,8.292683,0.987305,0.114258,0.111816
1762435492896193,-83.780487,-7.012195,5.609756,0.986328,0.112793,0.111816
1762435492906305,-76.646347,-14.817074,6.036585,0.986816,0.110352,0.109375
1762435492916417,-76.036591,-15.243903,4.756098,0.987793,0.109375,0.107910
1762435492926530,-69.573174,-12.987805,6.524390,0.988281,0.107910,0.105957
1762435492936642,-68.902443,-20.487804,7.621952,0.988770,0.106445,0.104980
1762435492946756,-60.121952,-22.560976,4.695122,0.988770,0.105469,0.104492
1762435492956866,-51.768295,-26.280489,4.268293,0.989258,0.104004,0.105957
1762435492966978,-54.390244,-15.914635,3.963415,0.989746,0.102051,0.107910
1762435492977091,-64.085365,-16.219513,-0.792683,0.991211,0.100098,0.111328
1762435492987203,-59.573174,-13.902439,-1.341463,0.991699,0.097656,0.113770
1762435492997315,-52.012196,2.804878,-1.890244,0.992676,0.095703,0.116211
1762435493007427,-44.634148,-6.829268,-2.317073,0.990723,0.095215,0.120605
1762435493017540,-41.707317,-5.609756,-1.829268,0.990723,0.093750,0.120605
1762435493027652,-22.134148,12.317074,-2.987805,0.988281,0.094238,0.124023
1762435493037764,-12.378049,-11.524390,-12.134147,0.986816,0.092773,0.125000
1762435493047877,-1.646342,6.463415,-8.536586,0.990234,0.088379,0.124512
1762435493057989,-7.621952,-2.500000,-8.841464,0.989746,0.085938,0.125488
1762435493068101,13.475610,7.073171,-5.853659,0.992676,0.083008,0.124023
1762435493078213,30.182928,26.585367,-5.121951,0.991211,0.083008,0.121094
1762435493088326,35.670734,-0.914634,-11.585366,0.990723,0.083496,0.121582
1762435493098438,34.085365,1.524390,-10.060976,0.988770,0.084961,0.117188
1762435493108549,22.804878,8.170732,-9.512196,0.988281,0.085449,0.116211
1762435493118662,42.134148,-15.792684,-13.048780,0.987793,0.086426,0.113281
1762435493128774,35.853661,-9.512196,-16.463415,0.989258,0.087891,0.110352
1762435493138886,38.292683,-4.878049,-11.097561,0.991211,0.088867,0.108887
1762435493148998,38.597561,-1.341463,-13.109756,0.992188,0.090332,0.106445
1762435493159111,35.304878,-1.402439,-13.841464,0.992676,0.092773,0.105957
1762435493169222,27.439026,5.243903,-16.829269,0.988770,0.096680,0.104980
1762435493179335,10.609756,4.146341,-19.390244,0.989258,0.100586,0.105469
1762435493189447,-24.817074,-13.292684,-18.231709,0.987305,0.104492,0.104980
1762435493199560,-48.292683,-17.073172,-20.487804,0.988281,0.106445,0.106445
1762435493209671,-40.243904,-4.085366,-20.182928,0.989746,0.107910,0.106934
1762435493219784,-37.378048,1.524390,-18.719513,0.991211,0.107910,0.110352
1762435493229896,-30.365854,5.548780,-19.085367,0.991699,0.109375,0.112793
1762435493240010,-53.048782,13.048780,-21.646341,0.989746,0.110840,0.115234
1762435493250120,-70.792686,7.134147,-17.378050,0.988281,0.111816,0.117676
1762435493260232,-74.634148,-6.951220,-18.841463,0.985352,0.111816,0.119141
1762435493270345,-70.731712,-2.195122,-19.878050,0.985840,0.110840,0.119141
1762435493280457,-63.780491,-3.109756,-13.719513,0.987305,0.109375,0.119141
1762435493290569,-40.670734,-1.463415,-10.365854,0.989746,0.106445,0.119629
1762435493300681,-9.451220,12.012196,-6.158537,0.990234,0.104004,0.119141
1762435493310794,6.890244,18.292683,-3.597561,0.989746,0.102051,0.120605
1762435493320906,20.853659,10.853659,-3.658537,0.987793,0.101074,0.121582
1762435493331019,21.097561,5.182927,0.000000,0.985352,0.100098,0.121582
1762435493341130,21.707317,-0.731707,4.512195,0.983398,0.099609,0.121094
1762435493351242,34.024391,-8.414635,5.060976,0.982910,0.098145,0.120117
1762435493361355,60.670734,-6.280488,9.024390,0.983887,0.097168,0.118164
1762435493371467,75.487808,-4.634147,11.646341,0.984863,0.096680,0.117188
1762435493381580,84.329269,-4.451220,13.231708,0.986816,0.096680,0.116211
1762435493391692,91.402443,3.719512,18.719513,0.987305,0.097656,0.114746
1762435493401803,88.109756,-0.731707,19.451220,0.985840,0.099609,0.115234
1762435493411915,78.170731,0.000000,17.621952,0.984863,0.103027,0.114258
1762435493422029,53.414635,-4.268293,19.146341,0.984375,0.107422,0.114258
1762435493432140,39.573174,-8.780488,19.268293,0.983887,0.110840,0.114258
1762435493442252,24.329269,-1.951220,17.987804,0.984863,0.113281,0.112793
1762435493452364,23.048780,1.951220,19.268293,0.985840,0.115234,0.112793
1762435493462476,6.768293,-2.500000,17.073172,0.987305,0.117676,0.112793
1762435493472590,-12.743903,2.926829,18.963415,0.987793,0.119629,0.113281
1762435493482701,-28.109756,-0.060976,20.182928,0.987305,0.121582,0.114746
1762435493492813,-40.792683,-6.951220,15.060976,0.986816,0.122559,0.115723
1762435493502925,-55.670734,-7.439024,12.987805,0.986816,0.124023,0.116211
1762435493513037,-66.707321,-6.341464,14.085366,0.987793,0.124023,0.116211
1762435493523150,-76.219513,-3.048780,12.195122,0.988281,0.122559,0.114746
1762435493533262,-73.841469,2.500000,14.512196,0.989258,0.120605,0.113770
1762435493543374,-64.817078,5.853659,15.060976,0.988770,0.118652,0.112793
1762435493553485,-60.000000,7.317073,11.585366,0.988770,0.116699,0.111816
1762435493563598,-59.695122,-0.609756,13.353659,0.988281,0.113770,0.111816
1762435493573711,-53.170734,-1.158537,13.536586,0.988281,0.109863,0.112793
1762435493583823,-35.975609,2.073171,11.463415,0.988770,0.105469,0.112793
1762435493593935,-15.182927,0.548781,12.804878,0.989258,0.101074,0.113281
1762435493604048,7.500000,2.256098,12.743903,0.989746,0.097168,0.114258
1762435493614160,19.024391,5.426829,11.402439,0.989258,0.094238,0.113770
1762435493624274,28.780489,1.341463,13.170732,0.988770,0.090820,0.113770
1762435493634384,41.341465,-0.609756,10.182927,0.988281,0.088867,0.112793
1762435493644496,52.439026,-0.121951,8.048780,0.988281,0.086914,0.111816
1762435493654608,64.939026,2.317073,10.548780,0.988770,0.085449,0.110840
1762435493664721,75.365852,3.475610,8.841464,0.989746,0.084473,0.110840
1762435493674833,87.621956,7.865854,8.170732,0.990723,0.083984,0.111816
1762435493684945,91.280487,11.402439,7.317073,0.990723,0.083496,0.112793
1762435493695057,90.000000,7.439024,2.926829,0.990723,0.084961,0.114258
1762435493705169,75.731712,7.804878,0.853659,0.990723,0.086426,0.115234
1762435493715283,64.939026,8.292683,-0.304878,0.990234,0.087891,0.115234
1762435493725394,65.853661,7.804878,-4.268293,0.989746,0.090332,0.114746
1762435493735506,49.756100,8.658537,-6.402439,0.989746,0.092773,0.114258
1762435493745618,30.182928,10.426829,-7.500000,0.989746,0.096191,0.113770
1762435493755731,6.768293,5.914634,-11.036586,0.990234,0.099121,0.113281
1762435493765844,-0.121951,4.756098,-11.585366,0.990234,0.101074,0.112793
1762435493775955,-12.500000,8.109756,-16.280489,0.991211,0.102539,0.112793
1762435493786067,-30.548780,5.182927,-19.268293,0.992188,0.104004,0.113281
1762435493796179,-46.585365,4.817073,-17.012196,0.992188,0.105469,0.113281
1762435493806292,-50.182926,11.646341,-18.780489,0.990723,0.106934,0.113281
1762435493816404,-58.902439,12.256098,-23.902439,0.989258,0.107910,0.113281
1762435493826516,-69.817078,-10.365854,-22.682928,0.988770,0.108887,0.113770
1762435493836628,-82.317078,-8.048780,-22.256098,0.987305,0.109375,0.113281
1762435493846740,-95.121956,-9.207317,-22.682928,0.989258,0.107422,0.113770
1762435493856853,-77.012199,-13.536586,-21.219513,0.989746,0.105469,0.114258
1762435493866965,-64.695122,-5.731708,-23.414635,0.992676,0.102539,0.114258
1762435493877077,-47.621952,12.378049,-17.012196,0.992676,0.101562,0.115234
1762435493887189,-43.841465,5.670732,-16.158537,0.990723,0.100586,0.116211
1762435493897301,-35.243904,0.426829,-18.414635,0.988770,0.099121,0.116699
1762435493907413,-39.451221,-1.036585,-16.524391,0.985352,0.098633,0.117676
1762435493917526,-26.219513,-13.353659,-11.463415,0.985840,0.096680,0.120117
1762435493927638,-23.292683,-16.646341,-12.804878,0.985840,0.094727,0.120117
1762435493937750,1.768293,-10.609756,-9.268293,0.988281,0.091797,0.122559
1762435493947862,36.402439,-5.609756,-4.573171,0.989746,0.090332,0.123535
1762435493957974,58.414635,-0.975610,-4.146341,0.990234,0.089844,0.125977
1762435493968087,57.134148,-7.134147,-1.341463,0.988281,0.090820,0.126465
1762435493978199,44.146343,-8.353659,-1.097561,0.986816,0.093262,0.126953
1762435493988311,37.195122,-16.463415,0.182927,0.985352,0.095703,0.127441
1762435493998423,27.317074,-17.500000,1.951220,0.984375,0.098145,0.125977
1762435494008537,26.280489,-11.219513,1.463415,0.985840,0.100098,0.125000
1762435494018648,25.670732,-4.634147,2.865854,0.986816,0.102051,0.123535
1762435494028760,21.036587,-3.597561,6.890244,0.988281,0.103516,0.123047
1762435494038872,12.012196,1.463415,5.609756,0.987305,0.105469,0.122070
1762435494048984,-2.987805,-4.512195,5.426829,0.986816,0.108398,0.122559
1762435494059096,-18.353659,-13.719513,6.829268,0.985352,0.111328,0.121582
1762435494069209,-34.695122,-15.060976,2.865854,0.984375,0.113281,0.120605
1762435494079321,-35.853661,-16.890244,4.268293,0.985352,0.114258,0.118164
1762435494089433,-37.926830,-13.841464,5.000000,0.985840,0.114746,0.114746
1762435494099547,-41.341465,-6.402439,4.390244,0.986816,0.115234,0.111816
1762435494109657,-54.451221,-8.231708,8.109756,0.986816,0.115723,0.108887
1762435494119770,-55.914635,-5.548780,9.268293,0.986328,0.116211,0.106934
1762435494129882,-57.195122,-9.390244,5.670732,0.985840,0.115723,0.105469
1762435494139994,-58.536587,-16.341463,7.621952,0.985840,0.114746,0.105469
1762435494150108,-56.219513,-13.536586,9.146341,0.986328,0.113770,0.105469
1762435494160218,-54.268295,-15.304878,8.231708,0.987305,0.111328,0.106934
1762435494170331,-39.512196,-17.073172,10.975610,0.987793,0.109863,0.108398
1762435494180443,-35.000000,-11.341464,8.475610,0.988281,0.107910,0.110352
1762435494190556,-32.926830,-13.902439,8.780488,0.988770,0.107422,0.112305
1762435494200667,-35.304878,-11.280488,10.731708,0.988281,0.106445,0.112793
1762435494210780,-23.780489,-3.902439,8.414635,0.988281,0.104980,0.112793
1762435494220892,-21.158537,4.390244,7.012195,0.988770,0.103516,0.111816
1762435494231004,-18.109756,-2.134146,10.975610,0.990234,0.101074,0.111328
1762435494241117,5.731708,19.695122,12.134147,0.989746,0.099609,0.110840
1762435494251229,15.731708,18.353659,11.646341,0.990723,0.096680,0.112793
1762435494261340,33.231709,9.634147,12.926829,0.989746,0.094238,0.113770
1762435494271453,37.317074,10.426829,7.865854,0.989258,0.092773,0.116211
1762435494281565,46.951221,9.512196,11.707317,0.989746,0.090332,0.117676
1762435494291677,52.743904,5.914634,10.487805,0.989258,0.087891,0.117676
1762435494301790,71.036591,2.073171,6.890244,0.990234,0.086426,0.116211
1762435494311901,80.487808,11.951220,9.756098,0.989746,0.087402,0.113281
1762435494322013,86.707321,14.024390,10.304878,0.990234,0.087402,0.110352
1762435494332126,84.756096,4.085366,5.914634,0.989746,0.088379,0.106445
1762435494342238,74.512199,9.329268,6.890244,0.990234,0.089355,0.104004
1762435494352350,77.195122,21.951220,8.231708,0.990723,0.090332,0.102051
1762435494362462,70.792686,16.646341,4.146341,0.992188,0.090820,0.101074
1762435494372575,75.000000,16.890244,5.853659,0.991211,0.092773,0.101562
1762435494382687,67.439026,25.060976,2.987805,0.990234,0.094727,0.103027
1762435494392801,54.451221,12.012196,-1.097561,0.989746,0.096191,0.104492
1762435494402911,39.573174,0.792683,-2.804878,0.988770,0.098145,0.105469
1762435494413024,26.951220,4.451220,-5.243903,0.989258,0.100098,0.105957
1762435494423136,18.963415,5.914634,-5.670732,0.989746,0.101562,0.105469
1762435494433248,9.939025,2.987805,-6.463415,0.990723,0.103027,0.105469
1762435494443360,2.317073,9.878049,-7.865854,0.991699,0.105469,0.104980
1762435494453473,-9.512196,18.658537,-7.500000,0.991699,0.106445,0.105469
1762435494463584,-19.573172,9.085366,-8.170732,0.991699,0.107422,0.106934
1762435494473697,-41.768295,7.926829,-10.914635,0.991211,0.108398,0.109375
1762435494483810,-52.195122,16.158537,-8.658537,0.990723,0.108398,0.112305
1762435494493921,-54.878052,10.853659,-9.939025,0.991211,0.106934,0.115234
1762435494504033,-43.780487,10.365854,-12.073171,0.990723,0.105957,0.117676
1762435494514146,-38.658539,15.792684,-9.878049,0.989746,0.105469,0.119629
1762435494524258,-39.939026,6.829268,-9.695122,0.989746,0.103516,0.120605
1762435494534371,-42.682926,-10.548780,-10.853659,0.989746,0.102051,0.121094
1762435494544482,-24.512196,-2.865854,-4.451220,0.989258,0.100098,0.121094
1762435494554594,3.048780,13.658537,-1.463415,0.988770,0.097656,0.120605
1762435494564706,15.060976,0.243902,-3.658537,0.987793,0.096191,0.122070
1762435494574820,6.890244,-10.731708,-2.682927,0.986816,0.095215,0.122070
1762435494584931,4.390244,-0.487805,-1.524390,0.986816,0.093750,0.122070
1762435494595043,32.865856,0.975610,1.646342,0.986328,0.091309,0.122070
1762435494605156,50.792683,3.109756,2.743902,0.985840,0.089844,0.121094
1762435494615268,51.036587,-5.121951,1.280488,0.985352,0.089844,0.121094
1762435494625380,47.012196,-6.890244,4.573171,0.984863,0.090820,0.120605
1762435494635492,41.097561,-12.926829,8.902439,0.984863,0.090820,0.121094
1762435494645604,51.585365,-13.292684,5.670732,0.983398,0.090820,0.120117
1762435494655716,66.951218,-6.890244,4.939024,0.983398,0.092773,0.120605
1762435494665829,56.219513,-11.524390,6.402439,0.981445,0.094727,0.121094
1762435494675941,19.756098,-3.414634,3.841464,0.980957,0.097168,0.120117
1762435494686053,-6.585366,-8.048780,4.207317,0.980957,0.099121,0.118164
1762435494696165,-10.609756,-17.256098,3.780488,0.981934,0.101562,0.116211
1762435494706277,-29.329269,-15.060976,1.036585,0.984863,0.104492,0.113281
1762435494716389,-29.085367,-7.317073,6.951220,0.985840,0.106934,0.111328
1762435494726502,-36.951221,12.743903,7.073171,0.983887,0.109375,0.111328
1762435494736614,-69.695122,3.170732,-0.121951,0.980469,0.111816,0.112793
1762435494746726,-97.682930,-18.597561,-3.292683,0.979004,0.115723,0.113770
1762435494756838,-126.646347,-35.243904,-2.804878,0.978516,0.119141,0.114746
1762435494766950,-123.902443,-35.182926,-0.365854,0.980957,0.118164,0.114746
1762435494777065,-101.097565,-49.756100,-2.256098,0.985840,0.114746,0.115234
1762435494787175,-87.500000,-45.609756,-7.378049,0.991211,0.112305,0.114746
1762435494797287,-97.134148,-17.682928,-3.414634,0.996094,0.111328,0.115723
1762435494807399,-107.378052,-15.548780,3.048780,0.997559,0.110840,0.114258
1762435494817511,-109.878052,-5.731708,-4.573171,0.995605,0.109863,0.112793
1762435494827624,-120.548782,-22.926830,-8.353659,0.996094,0.109375,0.110840
1762435494837736,-110.243904,0.060976,-3.109756,0.993164,0.108887,0.110352
1762435494847848,-114.329269,-6.890244,-4.695122,0.996094,0.104492,0.109863
1762435494857960,-84.878052,1.646342,-0.182927,0.996094,0.099121,0.110352
1762435494868074,-51.158539,10.731708,-4.024390,0.995605,0.094238,0.113281
1762435494878185,-2.621951,18.231709,-1.219512,0.997559,0.088867,0.116211
1762435494888297,3.231707,11.707317,0.243902,0.993164,0.085938,0.117676
1762435494898409,17.804878,1.768293,0.670732,0.992188,0.082520,0.118164
1762435494908522,53.841465,-11.219513,-0.060976,0.985840,0.080078,0.117676
1762435494918633,69.207321,-8.048780,-1.463415,0.986816,0.076172,0.114258
1762435494928746,95.731712,-24.085367,2.500000,0.987305,0.073242,0.110840
1762435494938858,98.048782,-27.012196,0.000000,0.989258,0.071289,0.105957
1762435494948970,144.146347,11.463415,11.585366,0.993164,0.068359,0.102539
1762435494959083,170.487808,8.536586,10.609756,0.992676,0.066406,0.100098
1762435494969194,191.768295,7.439024,9.268293,0.993164,0.068359,0.100098
1762435494979307,172.865860,14.634147,7.743903,0.989258,0.072754,0.100098
1762435494989419,144.878052,2.195122,5.121951,0.990234,0.075195,0.101562
1762435494999531,130.731705,-0.609756,4.817073,0.990234,0.078125,0.099121
1762435495009644,128.109756,1.768293,3.231707,0.993652,0.081055,0.098633
1762435495019755,140.243912,28.780489,0.000000,0.995117,0.084961,0.095215
1762435495029868,97.987808,17.256098,-1.158537,1.000488,0.089844,0.093750
1762435495039980,92.439026,24.817074,2.560976,0.999023,0.095703,0.091309
1762435495050092,87.317078,40.731709,-1.280488,0.996094,0.100586,0.091309
1762435495060204,69.329269,54.939026,-8.109756,0.992676,0.104492,0.089355
1762435495070316,1.219512,2.378049,-13.353659,0.991211,0.109375,0.093750
1762435495080429,-23.048780,-10.000000,-0.731707,0.991211,0.115234,0.092285
1762435495090540,-30.914635,45.304878,2.256098,0.988770,0.116211,0.094238
1762435495100653,-20.914635,-16.524391,-10.853659,0.990723,0.115234,0.099121
1762435495110765,-9.451220,-13.597561,-15.670732,0.992676,0.118652,0.099121
1762435495120877,-37.743904,24.329269,-4.085366,0.995605,0.119629,0.102539
1762435495130990,-87.682930,6.768293,-8.841464,0.996094,0.116211,0.101562
1762435495141102,-86.036591,-1.219512,-13.719513,0.995605,0.114746,0.101074
1762435495151214,-68.231712,48.780487,0.304878,0.991699,0.117676,0.098145
1762435495161326,-86.280487,35.182926,0.853659,0.989258,0.117676,0.099609
1762435495171438,-86.463417,1.036585,-6.402439,0.985352,0.116699,0.100098
1762435495181551,-102.195122,-3.475610,-2.317073,0.985840,0.112305,0.104004
1762435495191663,-48.597561,14.573171,6.158537,0.987305,0.103027,0.107910
1762435495201775,10.182927,16.219513,3.536585,0.991211,0.092773,0.111816
1762435495211888,25.121952,3.048780,9.085366,0.994141,0.089844,0.117676
1762435495221999,35.243904,20.365854,15.487805,0.991699,0.088867,0.119141
1762435495232111,74.085365,25.060976,15.304878,0.990234,0.083984,0.118652
1762435495242224,92.439026,-15.487805,6.646342,0.984375,0.083008,0.117676
1762435495252338,109.146347,-6.097561,13.292684,0.982910,0.085449,0.116211
1762435495262448,81.951218,25.914635,21.646341,0.982910,0.084961,0.111816
1762435495272560,52.926830,-19.268293,18.231709,0.985352,0.083496,0.112793
1762435495282672,88.109756,-1.341463,19.756098,0.986328,0.083008,0.109863
1762435495292785,132.195129,56.829269,25.914635,0.990723,0.081055,0.110352
1762435495302897,155.975616,18.780489,25.670732,0.989258,0.082520,0.113770
1762435495313009,105.670731,-5.792683,19.146341,0.986816,0.087402,0.116699
1762435495323121,79.573174,1.768293,25.121952,0.984375,0.090332,0.118652
1762435495333233,78.841469,-19.878050,19.268293,0.981445,0.092285,0.120117
1762435495343347,76.341469,-39.146343,12.195122,0.983398,0.095703,0.119141
1762435495353458,29.207317,-20.914635,14.451220,0.985840,0.101074,0.116211
1762435495363570,13.536586,-6.463415,15.365854,0.990234,0.103516,0.114258
1762435495373682,-4.573171,-11.951220,12.012196,0.992188,0.105469,0.108887
1762435495383794,-27.012196,14.085366,10.182927,0.991699,0.108887,0.107422
1762435495393907,-40.182926,17.560976,8.597561,0.988770,0.113770,0.107422
1762435495404019,-101.646347,-3.170732,5.853659,0.987793,0.116699,0.108398
1762435495414131,-142.987808,-24.390244,3.658537,0.984375,0.117676,0.112305
1762435495424244,-151.219513,-9.024390,-7.439024,0.985352,0.114258,0.114746
1762435495434356,-119.268295,-39.268295,-5.243903,0.990723,0.110352,0.118164
1762435495444468,-95.914635,-13.353659,-3.109756,0.990723,0.108398,0.117676
1762435495454580,-96.280487,-1.890244,-3.719512,0.993652,0.105469,0.119629
1762435495464692,-113.536591,-27.804878,-5.000000,0.990234,0.103516,0.117188
1762435495474804,-122.987808,-7.621952,-13.475610,0.990723,0.101074,0.113770
1762435495484917,-99.024391,-34.390244,-6.158537,0.988281,0.100098,0.111816
1762435495495028,-94.939026,7.317073,-3.536585,0.987793,0.096191,0.104980
1762435495505140,-71.097565,-7.073171,-6.036585,0.990234,0.091309,0.106934
1762435495515253,-36.768295,-32.378048,-7.804878,0.990723,0.087891,0.106445
1762435495525365,-3.841464,8.719512,-4.756098,0.994629,0.080566,0.109863
1762435495535477,0.792683,2.012195,-10.731708,0.996582,0.073242,0.110840
1762435495545590,14.329268,-2.256098,-10.914635,0.999512,0.068848,0.113770
1762435495555702,84.939026,-10.182927,9.146341,0.993164,0.070312,0.115234
1762435495565814,93.414635,37.926830,-0.426829,0.985352,0.070312,0.113281
1762435495575926,66.951218,-45.487804,-17.987804,0.982910,0.072266,0.116699
1762435495586038,29.573172,-75.000000,-15.792684,0.979980,0.076172,0.112793
1762435495596150,25.731709,7.987805,-3.658537,0.987793,0.073242,0.109375
1762435495606263,62.500000,-1.158537,-3.109756,0.992188,0.068848,0.104492
1762435495616375,122.682930,4.878049,-10.365854,0.996582,0.069824,0.102051
1762435495626487,128.048782,41.097561,-3.597561,0.995117,0.076172,0.101562
1762435495636599,74.695122,42.134148,-0.365854,0.991211,0.081055,0.104004
1762435495646712,40.304878,-28.292683,-9.390244,0.987305,0.084961,0.105957
1762435495656823,-0.487805,-34.756100,-17.317074,0.983398,0.089844,0.106934
1762435495666936,6.768293,3.048780,-12.987805,0.987793,0.092285,0.107910
1762435495677048,1.158537,-30.609756,-15.182927,0.994141,0.094727,0.106934
1762435495687160,-18.658537,-24.634148,-16.280489,0.999023,0.098633,0.105957
1762435495697272,-6.341464,35.487804,-12.012196,0.998535,0.102051,0.102539
1762435495707385,-26.341465,25.182928,-18.780489,0.999512,0.105957,0.101562
1762435495717497,-94.817078,-15.975610,-23.048780,0.995117,0.114258,0.100098
1762435495727611,-174.573181,8.902439,-22.195122,0.993164,0.119629,0.098633
1762435495737721,-200.670731,-6.219512,-21.280489,0.995117,0.119141,0.097168
1762435495747833,-153.841461,3.231707,-17.804878,0.996582,0.117188,0.095703
1762435495757945,-104.451225,16.036585,-16.402439,0.997559,0.115234,0.100098
1762435495768058,-132.073181,18.597561,-21.890244,0.998535,0.114258,0.101562
1762435495778170,-159.573181,-2.439024,-15.548780,1.000977,0.112793,0.105957
1762435495788282,-148.597565,-26.097561,-9.146341,1.000488,0.110352,0.106445
1762435495798394,-109.939026,-14.329268,-16.402439,1.001953,0.105957,0.107422
1762435495808506,-88.536591,-47.317074,-13.719513,1.008301,0.104004,0.105957
1762435495818621,-86.585365,-31.646341,-1.951220,1.013184,0.103516,0.105469
1762435495828731,-73.048782,4.878049,1.829268,1.016602,0.100586,0.106445
1762435495838843,-65.243904,-7.987805,-5.548780,1.018555,0.098145,0.108398
1762435495848955,-64.878052,-0.304878,-17.621952,1.020508,0.097168,0.109375
1762435495859067,-90.853661,33.719513,-19.085367,1.024414,0.095215,0.109863
1762435495869179,-115.853661,55.426830,-15.609756,1.023926,0.090332,0.108398
1762435495879291,-97.682930,48.963417,-21.890244,1.023926,0.083496,0.106934
1762435495889403,-38.048782,59.878052,-22.987806,1.018555,0.079102,0.105469
1762435495899516,-1.951220,87.256096,-13.719513,1.016602,0.076172,0.102051
1762435495909629,4.451220,73.109756,-12.073171,1.020020,0.069824,0.094727
1762435495919741,22.134148,27.682928,-13.536586,1.030273,0.062500,0.083984
1762435495929852,117.621956,23.780489,-5.487805,1.041504,0.051270,0.072754
1762435495939965,219.878052,51.219513,-5.975610,1.054199,0.041504,0.063965
1762435495950077,253.597565,29.756098,-8.414635,1.063477,0.037598,0.058105
1762435495960189,44.878052,66.280487,-57.317074,1.056152,0.026367,0.058105
1762435495970301,298.719513,-65.975609,13.963415,1.030273,0.042969,0.081055
1762435495980413,1104.695190,272.317078,-41.036587,1.025391,0.071777,0.052734
1762435495990525,257.500000,-109.024391,-45.060978,1.045410,0.073730,0.069336
1762435496000638,-93.048782,8.231708,2.012195,1.079102,0.097168,0.006836
1762435496010750,96.890244,846.158569,-44.634148,1.124512,0.076172,-0.043945
1762435496020862,364.146362,243.414642,-38.475609,1.122070,0.080078,-0.039551
1762435496030975,359.329285,51.097561,31.158537,1.118652,0.085449,-0.018066
1762435496041086,472.560974,117.804878,57.560978,1.056641,0.087402,0.020508
1762435496051200,784.939026,91.219513,119.756104,0.974121,0.137695,0.074707
1762435496061311,981.951233,116.768295,151.646347,0.935059,0.206543,0.084961
1762435496071423,1439.024414,60.670734,176.463425,0.921875,0.188477,0.072754
1762435496081535,593.780518,-69.817078,112.743904,0.958984,0.277832,0.029297
1762435496091648,-612.256104,-131.097565,-59.695122,0.986328,0.275879,0.022949
1762435496101759,-651.463440,-46.097561,-111.219513,0.991699,0.324707,0.090820
1762435496111872,-899.695129,61.280491,-208.109756,1.007812,0.412109,0.093750
1762435496121984,-1622.682983,-42.500000,-328.841461,1.022461,0.454590,0.103027
1762435496132096,-1676.097656,-273.536591,-256.524384,1.168945,0.419434,0.078613
1762435496142210,-710.000000,-2.500000,-271.463409,1.094238,0.468750,-0.181641
1762435496152320,149.207321,147.987808,-374.390259,1.189941,0.360840,0.050781
1762435496162433,-1155.000000,-282.439026,-203.658539,1.145996,0.324707,0.086426
1762435496172545,-702.682922,243.170731,-128.353668,1.091309,0.345215,0.115723
1762435496182657,-311.585388,376.707336,-229.634155,1.039551,0.354980,0.098145
1762435496192769,-1457.926880,364.390259,-110.914635,1.016113,0.313965,0.068848
1762435496202882,-439.024414,-57.987804,-353.963409,1.052734,0.300781,0.024902
1762435496212994,90.914635,15.548780,-317.195129,1.005859,0.178223,-0.137207
1762435496223106,220.731720,325.304871,78.963417,0.953125,0.208984,-0.074219
1762435496233218,210.975616,-336.829285,-218.414642,0.947266,0.233887,0.107422
1762435496243330,-858.902466,337.500000,194.390244,0.891113,0.141113,0.001953
1762435496253442,-288.719513,-313.597565,55.914635,0.900391,0.221191,0.097656
1762435496263554,-625.548767,-100.304878,-54.268295,0.923340,0.170898,0.214844
1762435496273667,-31.280489,-428.231720,37.560978,0.850586,0.175293,0.092773
1762435496283779,-185.121948,-275.975616,38.475609,0.837891,0.281738,0.145020
1762435496293893,182.743912,-168.414642,-445.914642,0.851074,0.340332,0.159668
1762435496304003,13.658537,-133.231705,-438.170746,0.824219,0.336914,0.090820
1762435496314115,-306.158539,62.439026,-300.670746,0.866699,0.338867,0.165039
1762435496324228,-788.048828,-398.048798,-89.085365,0.896484,0.179199,0.242676
1762435496334340,-110.975609,-250.914642,13.597561,0.938965,0.144531,0.314453
1762435496344452,66.646339,-189.451218,194.207321,0.962891,0.067871,0.398438
1762435496354564,54.695122,324.451233,254.573181,0.973145,0.171875,0.396484
1762435496364676,172.743912,305.000000,-147.500000,0.986816,0.171875,0.432617
1762435496374788,249.146347,1200.975586,-230.609756,0.922852,0.247559,0.375000
1762435496384903,-412.317078,736.524414,47.865856,0.893066,0.252441,0.285156
1762435496395013,-231.402451,538.353699,-141.097565,0.894531,0.247559,0.349609
1762435496405125,-1058.597534,-53.841465,-10.670732,0.871582,0.254395,0.309570
1762435496415237,-910.548828,-255.914642,9.512196,0.811523,0.208984,0.361816
1762435496425350,-611.585388,-20.914635,154.451218,0.765625,0.133301,0.433594
1762435496435462,-628.475647,24.939026,192.073181,0.744141,0.099609,0.467773
1762435496445574,-667.012207,-14.573171,202.195129,0.738770,0.085938,0.469238
1762435496455686,-865.548828,-75.792686,237.804886,0.770996,0.086426,0.496582
1762435496465798,-281.402435,-199.268295,108.658539,0.838867,0.039551,0.495605
1762435496475912,-63.963417,32.560978,90.060974,0.840332,-0.044922,0.564453
1762435496486022,257.987823,653.963440,42.134148,0.846680,-0.072754,0.539551
1762435496496135,359.146362,493.231720,25.243902,0.885254,-0.087891,0.536133
1762435496506247,1166.829346,318.353668,-57.256100,0.903809,-0.086914,0.517578
1762435496516359,546.890259,264.512207,-26.890245,0.894043,-0.121582,0.526367
1762435496526473,840.426819,362.378052,-160.975616,0.755371,0.013184,0.561035
1762435496536583,-1084.817139,30.487806,-37.865856,0.610840,-0.016113,0.486816
1762435496546696,-482.317078,219.024399,-66.524391,0.566895,-0.013672,0.518555
1762435496556808,-263.292694,37.378048,-101.951225,0.583984,-0.051270,0.630371
1762435496566921,-912.256104,-55.426830,-24.085367,0.565430,-0.082031,0.605957
1762435496577032,-299.939026,62.439026,20.060976,0.544434,-0.122559,0.622559
1762435496587144,173.170731,77.926834,8.292683,0.541992,-0.160156,0.642578
1762435496597257,308.536591,81.097565,-9.817074,0.549805,-0.191895,0.675293
1762435496607369,350.060974,56.890244,54.207317,0.553711,-0.195801,0.712891
1762435496617482,240.609756,32.195122,51.280491,0.522949,-0.180664,0.706055
1762435496627593,81.280487,78.963417,35.670734,0.471680,-0.189941,0.714355
1762435496637705,147.500000,53.231709,36.890244,0.443848,-0.155762,0.764648
1762435496647818,27.378050,-32.560978,16.890244,0.418945,-0.183594,0.737793
1762435496657930,162.621948,53.719513,24.634148,0.400879,-0.180664,0.754395
1762435496668042,33.353661,27.256098,29.146341,0.396973,-0.166992,0.789062
1762435496678154,282.439026,-42.256100,8.780488,0.390625,-0.174805,0.799805
1762435496688266,705.975647,-69.451218,-8.292683,0.391113,-0.166016,0.829590
1762435496698378,169.329269,-30.304878,17.256098,0.378906,-0.135254,0.825684
1762435496708491,-76.219513,0.975610,19.085367,0.365234,-0.096680,0.801758
1762435496718603,-63.475613,-56.951221,2.378049,0.364258,-0.105957,0.818848
1762435496728715,-567.073181,39.573174,83.719513,0.343750,-0.075195,0.812988
1762435496738827,-405.914642,6.585366,45.243904,0.355469,-0.104492,0.836914
1762435496748939,114.512199,14.573171,8.475610,0.350098,-0.109375,0.854980
1762435496759051,-83.414635,-6.341464,14.573171,0.345215,-0.087402,0.855957
1762435496769166,338.109772,-25.792683,-78.536591,0.363770,-0.107422,0.861816
1762435496779276,270.670746,-2.256098,-67.621956,0.349609,-0.081055,0.868652
1762435496789388,55.975613,-57.439026,-39.329269,0.341309,-0.068359,0.842285
1762435496799500,-154.634155,-9.634147,3.597561,0.336914,-0.061523,0.834961
1762435496809612,-342.987823,13.902439,35.060978,0.335449,-0.068848,0.882812
1762435496819725,56.646343,-45.853661,4.024390,0.333984,-0.092285,0.901855
1762435496829837,64.024391,-107.926834,7.256098,0.332031,-0.078613,0.912109
1762435496839949,45.670734,-32.987804,21.585367,0.330566,-0.108398,0.903809
1762435496850061,234.817078,4.451220,9.756098,0.334473,-0.093750,0.922363
1762435496860175,94.573174,65.121956,24.573172,0.338867,-0.066895,0.895996
1762435496870286,-16.158537,123.414635,28.414635,0.328613,-0.055664,0.894043
1762435496880398,37.439026,35.609756,0.365854,0.328613,-0.054688,0.903320
1762435496890510,197.987808,18.658537,-49.024391,0.332031,-0.064453,0.874023
1762435496900622,409.573181,-65.426834,-52.743904,0.333984,-0.035645,0.899902
1762435496910734,-136.219513,-50.000000,8.902439,0.333008,0.015137,0.905762
1762435496920847,-632.743896,10.914635,89.878052,0.349121,0.024414,0.867188
1762435496930959,-437.378052,242.743912,32.500000,0.329102,-0.003418,0.801270
1762435496941071,-251.280487,280.853668,65.487808,0.331543,0.032227,0.819824
1762435496951185,180.182938,962.439026,261.829285,0.325195,0.040527,0.785156
1762435496961295,103.841469,118.658539,117.195122,0.252441,-0.041504,1.036621
1762435496971407,-300.609772,-198.292694,271.829285,0.221191,-0.036133,0.905273
1762435496981520,-50.670734,172.865860,49.207317,0.194336,-0.137207,0.885742
1762435496991632,-148.963425,-120.792686,-29.756098,0.161621,-0.074707,0.973145
1762435497001746,44.817074,-149.207321,-144.695129,0.151855,-0.110352,0.918945
1762435497011856,209.146347,-116.646347,-138.170731,0.141602,-0.124023,0.948242
1762435497021968,35.243904,-215.426834,-159.634155,0.146973,-0.055176,0.962891
1762435497032081,-330.731720,-219.268295,8.719512,0.135742,-0.051270,0.941895
1762435497042193,-155.000000,-187.012207,-7.073171,0.188477,-0.089355,0.950195
1762435497052305,9.756098,-316.280487,-15.853659,0.242188,-0.068848,0.931641
1762435497062417,-13.475610,-168.597565,21.646341,0.256348,-0.045898,0.925293
1762435497072530,25.000000,70.487808,60.060978,0.274902,-0.065430,0.916016
1762435497082642,-82.073174,103.231712,94.695122,0.277832,-0.059082,0.926270
1762435497092754,69.207321,-18.719513,56.707317,0.297852,-0.064453,0.922852
1762435497102866,-74.573174,-148.536591,28.170732,0.300781,-0.062500,0.921875
1762435497112978,-191.890244,-96.768295,74.207321,0.304688,-0.067383,0.927246
1762435497123090,-236.219513,-215.792694,106.280487,0.311523,-0.077148,0.923828
1762435497133202,-131.890244,-160.670731,53.597561,0.322754,-0.093262,0.920410
1762435497143315,71.829269,4.939024,-65.609756,0.292969,-0.120605,0.911133
1762435497153427,230.792694,41.463417,-81.646347,0.299805,-0.124023,0.922852
1762435497163539,171.219513,-29.634148,-114.573174,0.254883,-0.097168,0.918457
1762435497173651,-135.243912,39.878048,53.963417,0.158203,-0.112305,0.904297
1762435497183763,-205.792694,-56.158539,154.329269,0.104004,-0.140625,0.893066
1762435497193876,61.280491,-406.646362,4.146341,0.065918,-0.187012,0.880859
1762435497203988,359.268311,-987.804932,-110.914635,0.019531,-0.212402,0.823242
1762435497214100,473.963440,-726.768311,-94.146347,-0.014648,-0.229004,0.727539
1762435497224212,93.353661,-851.341492,129.573181,0.174805,-0.182129,0.618164
1762435497234325,-196.707321,-982.256104,27.317074,0.244141,-0.143066,0.634766
1762435497244439,-592.621948,-248.292694,142.865860,0.468750,-0.125977,0.361328
1762435497254549,-103.719513,-771.158569,55.853661,0.574707,-0.190430,0.388672
1762435497264661,121.402443,-1656.463501,131.280487,0.722656,-0.189941,0.383301
1762435497274773,1170.061035,-333.963409,-69.939026,0.726074,-0.124512,0.355957
1762435497284886,610.975647,-1017.256104,-70.914635,0.763672,-0.118164,0.360352
1762435497294998,364.939026,-268.292694,-289.817078,0.771973,0.026367,0.248047
1762435497305110,-1372.743896,-285.304871,-388.231720,0.848633,0.170410,0.339844
1762435497315222,-1499.817139,63.109756,-15.060976,0.837402,0.136719,0.415039
1762435497325334,-606.280518,1106.158569,27.682928,0.932129,0.019043,0.350586
1762435497335448,16.890244,208.902451,-156.951218,0.969238,-0.063965,0.239258
1762435497345559,139.146347,-111.219513,-54.085365,1.013672,-0.174805,0.267090
1762435497355671,706.707336,215.000000,54.390244,0.917969,-0.184082,0.267578
1762435497365783,335.853668,981.219543,155.670731,0.983398,-0.191895,0.244629
1762435497375895,91.463417,-121.768295,181.097565,1.001465,-0.179688,0.245605
1762435497386007,305.975616,220.121964,111.646347,0.974121,-0.148438,0.191895
1762435497396120,154.695129,211.951218,134.817078,0.991211,-0.113281,0.208008
1762435497406232,250.853668,-6.402439,74.817078,1.012695,-0.130859,0.241699
1762435497416344,296.585388,68.597565,-17.804878,0.980957,-0.053223,0.176270
1762435497426457,-124.512199,30.487806,-0.182927,0.988770,-0.024414,0.201660
1762435497436568,21.097561,75.000000,-135.731705,0.990723,-0.020020,0.212402
1762435497446680,159.146347,-113.231712,-222.012207,0.958008,0.026855,0.157715
1762435497456793,-133.048782,140.304886,-219.268295,0.983398,0.033691,0.182617
1762435497466905,-111.585365,-169.695129,-229.634155,0.977539,0.023926,0.209961
1762435497477018,267.804871,-67.865852,-100.426834,0.968262,-0.074707,0.184082
1762435497487129,127.865860,-102.012199,12.317074,0.985352,-0.052246,0.243164
1762435497497242,-0.426829,-159.756104,68.658539,0.961914,-0.072754,0.206543
1762435497507354,175.000000,-35.121952,-1.341463,0.965332,-0.010254,0.185059
1762435497517466,-239.939026,-122.926834,-30.487806,0.990234,0.042480,0.214844
1762435497527578,-157.073181,-58.231709,-40.304878,0.958008,-0.018066,0.213867
1762435497537690,134.024399,52.865856,5.548780,0.981445,0.000488,0.254395
1762435497547802,-550.792725,119.695122,44.268295,0.983887,-0.003418,0.281738
1762435497557915,-230.975616,-31.097561,97.195122,0.991211,-0.022949,0.268066
1762435497568027,231.463425,-57.865856,100.609756,0.984375,-0.038086,0.265625
1762435497578139,101.097565,170.121948,144.939026,0.975098,-0.025879,0.282715
1762435497588251,73.109756,100.426834,94.146347,0.997070,0.010742,0.298828
1762435497598364,-166.158539,-3.475610,19.146341,1.001465,0.060547,0.283691
1762435497608476,-384.817078,-14.390244,33.414635,0.995605,0.035156,0.272949
1762435497618588,-42.317074,79.024391,26.402439,0.976074,0.011230,0.267090
1762435497628700,-43.780487,28.475611,7.987805,0.960938,0.031250,0.265137
1762435497638812,-37.134148,9.390244,10.121951,0.959473,0.004395,0.250488
1762435497648924,56.097561,-129.756104,73.292686,0.958496,-0.030762,0.252930
1762435497659037,25.670732,-112.378052,147.012192,0.939941,-0.041016,0.217285
1762435497669149,1.036585,-44.756100,192.195129,0.943359,-0.064453,0.221191
1762435497679261,114.573174,-142.621948,178.780487,0.948242,-0.048828,0.203613
1762435497689373,13.109756,-193.780487,114.024391,0.949707,-0.028320,0.181152
1762435497699485,-24.390244,-212.987808,95.792686,0.957520,-0.028809,0.194824
1762435497709598,-53.353661,-176.341461,70.609756,0.969727,-0.016602,0.202637
1762435497719712,-113.170731,-162.560974,36.951221,0.982422,-0.014160,0.230957
1762435497729822,-100.487808,-107.012199,-5.975610,1.001953,-0.018066,0.251953
1762435497739935,-82.560974,-29.268293,-40.000000,1.013184,-0.014160,0.240723
1762435497750046,-92.134148,-74.878052,-82.012199,1.013672,-0.020996,0.251953
1762435497760159,-22.500000,-13.109756,-102.865852,1.005859,-0.046387,0.274902
