Timestamp (us),Gyroscope X (deg/s),Gyroscope Y (deg/s),Gyroscope Z (deg/s),Accelerometer X (g),Accelerometer Y (g),Accelerometer Z (g)
65797842,91.219513,22.073172,-70.426834,0.853516,0.022949,-0.534180
1762435482296023,74.756096,23.536587,-59.024391,0.850586,0.021484,-0.533203
1762435482306069,30.731709,27.926830,-36.402439,0.847168,0.018555,-0.531738
1762435482316116,-1.707317,54.573174,-9.390244,0.846680,0.015137,-0.531738
1762435482326163,11.524390,55.182930,-3.780488,0.848633,0.012695,-0.532715
1762435482336209,8.719512,49.024391,2.500000,0.848145,0.011230,-0.532715
1762435482346256,-27.804878,71.890244,25.060976,0.847168,0.009277,-0.533203
1762435482356303,-43.292683,65.365852,35.609756,0.850586,0.007812,-0.535645
1762435482366350,-29.695122,48.292683,33.719513,0.852539,0.005859,-0.537109
1762435482376398,-12.560976,58.353661,34.878048,0.852539,0.004883,-0.538574
1762435482386444,-7.804878,44.817074,33.414635,0.852051,0.005371,-0.540527
1762435482396491,-27.500000,20.426830,34.573170,0.851074,0.005859,-0.541504
1762435482406538,-43.475613,27.195122,41.829269,0.851074,0.005371,-0.541504
1762435482416585,-34.390244,25.853659,44.817074,0.852539,0.004395,-0.542969
1762435482426631,-37.560978,10.792684,48.841465,0.851562,0.005371,-0.542480
1762435482436678,-44.634148,25.914635,50.670734,0.849609,0.007324,-0.540039
1762435482446725,-8.353659,52.865856,34.939026,0.849609,0.009277,-0.539551
1762435482456772,4.085366,49.634148,27.500000,0.851562,0.009766,-0.540527
1762435482466819,-8.414635,53.292683,35.853661,0.853027,0.009277,-0.541016
1762435482476866,33.414635,59.878052,22.743902,0.855469,0.010742,-0.542480
1762435482486913,59.390244,32.378048,1.646342,0.854980,0.013184,-0.544922
1762435482496960,23.841463,10.914635,1.524390,0.854004,0.014648,-0.546875
1762435482507006,49.695122,-2.012195,-14.207317,0.855469,0.014648,-0.549316
1762435482517053,108.719513,-38.414635,-43.292683,0.857422,0.015137,-0.551270
1762435482527100,125.670738,-46.585365,-53.109756,0.858398,0.016113,-0.551270
1762435482537147,76.890244,-40.853661,-36.402439,0.858398,0.016113,-0.550293
1762435482547194,70.365852,-39.573174,-29.390245,0.859863,0.014648,-0.549316
1762435482557241,85.731712,-33.231709,-25.060976,0.858887,0.013672,-0.547852
1762435482567288,37.743904,-3.170732,5.487805,0.855469,0.013184,-0.545410
1762435482577335,14.207317,4.756098,21.036587,0.853027,0.013184,-0.543945
1762435482587381,17.195122,1.280488,20.853659,0.851562,0.013672,-0.541992
1762435482597428,-23.841463,18.292683,40.182926,0.852539,0.013672,-0.541504
1762435482607475,-30.060976,24.207317,52.073174,0.854492,0.012695,-0.541992
1762435482617522,-36.036587,6.768293,59.512196,0.854980,0.013184,-0.542480
1762435482627569,-79.512199,3.231707,74.207321,0.853027,0.015625,-0.541992
1762435482637617,-83.475609,8.414635,72.378052,0.851562,0.017090,-0.541992
1762435482647663,-80.060974,-17.012196,67.682930,0.851074,0.017090,-0.542969
1762435482657710,-139.085373,-25.182928,93.719513,0.850586,0.018066,-0.541992
1762435482667757,-158.963425,-13.780488,104.939026,0.852539,0.020020,-0.541016
1762435482677803,-105.731712,-9.634147,80.060974,0.854004,0.023926,-0.539062
1762435482687850,-106.707321,9.390244,75.975609,0.853516,0.025879,-0.537109
1762435482697897,-119.939026,25.975611,81.524391,0.853027,0.027832,-0.536621
1762435482707944,-107.865860,12.743903,71.402443,0.852539,0.030762,-0.536621
1762435482717992,-100.243904,10.426829,56.768295,0.851562,0.034668,-0.535645
1762435482728038,-92.439026,20.548780,39.756100,0.852051,0.038086,-0.535645
1762435482738085,-46.951221,1.951220,7.560976,0.854980,0.040527,-0.537109
1762435482748132,-20.182928,-12.804878,-12.073171,0.854980,0.041992,-0.538086
1762435482758178,-17.256098,-9.817074,-20.792683,0.854980,0.043945,-0.538086
1762435482768226,19.939024,-27.378050,-50.670734,0.854980,0.046875,-0.538574
1762435482778272,36.402439,-33.475609,-72.317078,0.854980,0.048828,-0.537598
1762435482788319,55.243904,-18.353659,-85.121956,0.856445,0.048828,-0.538086
1762435482798366,99.024391,-23.841463,-104.756104,0.859375,0.048340,-0.538574
1762435482808413,114.085365,-27.926830,-115.548782,0.860352,0.048340,-0.538086
1762435482818460,120.731712,-10.060976,-121.097565,0.860840,0.047363,-0.537598
1762435482828506,145.548782,-14.329268,-132.682922,0.861816,0.045410,-0.539062
1762435482838554,135.182938,-32.439026,-127.804878,0.862305,0.042480,-0.540527
1762435482848600,96.890244,-32.560978,-106.524391,0.862305,0.039062,-0.541016
1762435482858647,90.365852,-43.231709,-98.048782,0.862305,0.036133,-0.542480
1762435482868694,52.073174,-60.792683,-81.280487,0.861328,0.032715,-0.542969
1762435482878741,9.695122,-57.134148,-58.109756,0.860352,0.029297,-0.542480
1762435482888788,14.634147,-52.378052,-49.695122,0.861328,0.025879,-0.541992
1762435482898835,0.060976,-51.280491,-35.060978,0.861816,0.022461,-0.541504
1762435482908881,-30.000000,-28.170732,-9.573171,0.859863,0.018555,-0.539551
1762435482918928,-38.231709,-5.304878,8.536586,0.859375,0.016113,-0.538574
1762435482928975,-58.536587,-3.902439,23.414635,0.858398,0.014160,-0.537598
1762435482939022,-71.768295,11.219513,35.914635,0.856445,0.012207,-0.537109
1762435482949069,-58.536587,14.878049,37.804878,0.854980,0.010254,-0.537598
1762435482959116,-82.926834,0.121951,48.170734,0.853027,0.009766,-0.538086
1762435482969163,-115.304878,-6.036585,59.817074,0.851562,0.009766,-0.538086
1762435482979210,-100.914635,-2.256098,55.792683,0.851074,0.009277,-0.538086
1762435482989257,-91.768295,-7.256098,52.378052,0.852051,0.009277,-0.538086
1762435482999303,-88.780487,-3.292683,51.890244,0.851074,0.009766,-0.536621
1762435483009350,-53.719513,20.670732,39.756100,0.851074,0.011230,-0.535156
1762435483019397,-19.451220,31.951220,23.292683,0.851562,0.012695,-0.534668
1762435483029444,-11.890244,39.939026,18.414635,0.851074,0.012695,-0.534180
1762435483039491,11.646341,45.975613,10.670732,0.851562,0.013184,-0.535156
1762435483049538,30.792685,35.914635,-0.670732,0.851562,0.014160,-0.536621
1762435483059584,16.524391,21.524391,-3.414634,0.850586,0.015137,-0.538086
1762435483069631,19.817074,12.012196,-8.353659,0.850098,0.015137,-0.539551
1762435483079678,34.939026,-3.292683,-16.036585,0.850586,0.014648,-0.541016
1762435483089725,35.548782,-15.121952,-18.780489,0.851562,0.014648,-0.541992
1762435483099771,41.768295,-9.390244,-20.182928,0.852539,0.014160,-0.541992
1762435483109819,59.939026,-5.670732,-23.292683,0.854004,0.013672,-0.542480
1762435483119866,45.731709,-7.500000,-14.512196,0.854980,0.012695,-0.542969
1762435483129913,40.792683,0.182927,-7.439024,0.855469,0.011719,-0.542969
1762435483139959,57.743904,3.353659,-8.292683,0.855469,0.011230,-0.543945
1762435483150006,28.536587,-9.512196,4.024390,0.854980,0.010742,-0.544434
1762435483160053,-1.280488,-14.207317,17.926830,0.854492,0.009766,-0.544434
1762435483170100,4.024390,-16.890244,20.365854,0.854004,0.009277,-0.544434
1762435483180147,-13.292684,-23.292683,30.426830,0.853027,0.009277,-0.544434
1762435483190194,-47.317074,-21.158537,47.012196,0.851562,0.009277,-0.542969
1762435483200241,-32.743904,-10.487805,45.487804,0.852539,0.009766,-0.541504
1762435483210288,-15.975610,-0.487805,40.914635,0.852539,0.010254,-0.540039
1762435483220334,-25.121952,17.195122,47.926830,0.852051,0.010742,-0.538574
1762435483230381,-23.902439,31.341465,51.463417,0.852539,0.012207,-0.537109
1762435483240428,-16.829269,38.231709,48.902439,0.852539,0.013672,-0.536133
1762435483250475,-6.951220,49.390244,44.024391,0.851074,0.015137,-0.535156
1762435483260522,-3.658537,49.329269,39.268295,0.849609,0.017090,-0.535156
1762435483270569,-8.414635,42.134148,34.146343,0.848633,0.019531,-0.535156
1762435483280616,-2.865854,38.719513,23.536587,0.849121,0.021973,-0.535645
1762435483290663,76.463417,39.573174,-13.658537,0.850586,0.023438,-0.535156
1762435483300710,122.439026,46.463417,-36.219513,0.854004,0.025391,-0.535645
1762435483310756,36.707317,49.573174,-7.500000,0.857910,0.025391,-0.537109
1762435483320804,75.304878,57.073174,-12.439025,0.860840,0.023926,-0.538086
1762435483330850,121.097565,51.402439,-24.634148,0.859375,0.024902,-0.539551
1762435483340897,20.670732,49.268295,7.500000,0.855957,0.026855,-0.540039
1762435483350944,1.707317,22.500000,3.475610,0.855469,0.028320,-0.541504
1762435483360991,47.500000,-4.146341,-19.878050,0.854980,0.028320,-0.542969
1762435483371038,-2.926829,-0.304878,0.914634,0.854980,0.028320,-0.543945
1762435483381084,-30.548780,-18.048780,11.280488,0.855469,0.028809,-0.543457
1762435483391132,9.878049,-10.060976,-6.646342,0.856934,0.032227,-0.541992
1762435483401178,17.256098,14.451220,-16.707317,0.857910,0.033691,-0.540527
1762435483411225,20.914635,28.414635,-15.548780,0.857910,0.032227,-0.540527
1762435483421272,19.695122,12.012196,-8.109756,0.856934,0.031738,-0.541504
1762435483431319,-22.317074,-2.743902,0.426829,0.855469,0.035156,-0.540527
1762435483441366,5.243903,10.670732,-24.024391,0.854492,0.037598,-0.540039
1762435483451412,60.182930,-0.060976,-54.451221,0.854980,0.037598,-0.541504
1762435483461459,21.890244,-27.500000,-43.231709,0.855469,0.036133,-0.542480
1762435483471506,11.585366,-30.853659,-37.804878,0.854492,0.036133,-0.541992
1762435483481553,60.304878,-21.097561,-58.780491,0.852051,0.037598,-0.540527
1762435483491600,38.597561,-29.085367,-61.951221,0.850586,0.038574,-0.539551
1762435483501647,7.865854,-19.878050,-51.402439,0.850586,0.036133,-0.537598
1762435483511694,52.317074,7.256098,-52.195122,0.853027,0.032715,-0.537598
1762435483521741,33.841465,11.524390,-34.817074,0.854492,0.031738,-0.538086
1762435483531788,-13.841464,14.451220,-17.926830,0.854004,0.031738,-0.537109
1762435483541834,27.378050,24.268293,-33.780487,0.854004,0.029785,-0.538086
1762435483551881,13.536586,11.341464,-25.243902,0.853027,0.026855,-0.540527
1762435483561928,-76.158539,-24.024391,12.012196,0.853027,0.023926,-0.542969
1762435483571975,-70.548782,-37.073174,13.170732,0.854004,0.022949,-0.543945
1762435483582022,-39.024391,-38.902439,-1.646342,0.854980,0.022949,-0.544922
1762435483592069,-80.121956,-47.926830,11.646341,0.854980,0.020996,-0.545410
1762435483602116,-93.597565,-48.475613,26.036587,0.855957,0.018066,-0.545410
1762435483612162,-89.451225,-39.939026,33.902439,0.858398,0.018066,-0.544434
1762435483622209,-76.158539,-21.158537,24.695122,0.859863,0.019531,-0.542969
1762435483632256,-6.768293,-4.024390,-3.353659,0.857910,0.018555,-0.541504
1762435483642303,-9.939025,-1.097561,-0.914634,0.854004,0.018066,-0.541504
1762435483652350,-45.487804,-25.670732,2.926829,0.853027,0.020020,-0.541504
1762435483662397,17.073172,-23.109756,-31.524391,0.851074,0.020020,-0.540039
1762435483672444,79.939026,-5.792683,-55.121952,0.850586,0.019043,-0.541016
1762435483682490,21.280489,-35.792683,-35.426830,0.851074,0.017578,-0.541992
1762435483692538,20.426830,-30.548780,-32.682926,0.853516,0.017090,-0.541016
1762435483702585,106.768295,0.914634,-58.597561,0.854492,0.016113,-0.541016
1762435483712631,75.853661,-7.743903,-43.780487,0.854980,0.013184,-0.542969
1762435483722678,5.853659,-38.658539,-13.597561,0.854004,0.010742,-0.543945
1762435483732725,34.512196,-17.195122,-13.780488,0.853516,0.009766,-0.543457
1762435483742772,39.817074,-34.146343,-16.524391,0.854004,0.008789,-0.544922
1762435483752819,-13.597561,-60.060978,5.670732,0.851074,0.005859,-0.545410
1762435483762866,-37.621952,-38.231709,31.036587,0.851562,0.003906,-0.544922
1762435483772912,-50.609756,-50.670734,34.817074,0.858398,0.004883,-0.545410
1762435483782959,-27.560976,-30.731709,35.792683,0.859375,0.001465,-0.543945
1762435483793006,-51.646343,-4.756098,72.134148,0.856934,-0.001953,-0.543945
1762435483803053,-151.402435,-17.804878,116.890244,0.855957,0.000488,-0.543457
1762435483813102,-141.768295,-25.487806,101.890244,0.855957,0.003906,-0.541016
1762435483823147,-31.219513,5.000000,58.353661,0.855957,0.004395,-0.541016
1762435483833194,-82.500000,-13.780488,86.158539,0.853516,0.001953,-0.543457
1762435483843242,-210.243912,-49.390244,138.780487,0.852051,0.003906,-0.542480
1762435483853287,-115.243904,-38.536587,92.500000,0.853516,0.010742,-0.538574
1762435483863334,-2.195122,0.609756,34.573170,0.851074,0.014160,-0.535645
1762435483873382,-36.768295,3.597561,46.707317,0.850586,0.013184,-0.536133
1762435483883428,-78.109756,-14.207317,68.902443,0.849609,0.014648,-0.534180
1762435483893475,-48.231709,15.853659,54.512196,0.849609,0.020020,-0.530762
1762435483903523,36.768295,49.207317,11.036586,0.848145,0.023926,-0.528809
1762435483913568,34.451221,60.000000,3.475610,0.850586,0.025391,-0.529297
1762435483923615,23.475611,51.829269,7.317073,0.854980,0.025391,-0.529785
1762435483933663,60.487808,77.621956,4.268293,0.854492,0.025391,-0.530762
1762435483943709,76.707321,54.085365,-8.780488,0.854980,0.029297,-0.533203
1762435483953757,46.036587,18.353659,-21.402439,0.851562,0.033203,-0.533691
1762435483963804,43.109756,24.390244,-30.731709,0.851562,0.033203,-0.535156
1762435483973850,80.853661,6.585366,-40.426830,0.854492,0.031738,-0.538574
1762435483983897,27.804878,-31.829269,-24.329269,0.858887,0.033691,-0.540039
1762435483993944,42.317074,-8.109756,-33.902439,0.860840,0.035645,-0.537109
1762435484003990,121.524391,32.134148,-64.207321,0.860352,0.036133,-0.536621
1762435484014037,87.134148,3.658537,-56.097561,0.860352,0.036133,-0.538086
1762435484024085,-2.560976,7.012195,-18.170732,0.857910,0.035156,-0.535645
1762435484034131,53.658539,46.219513,-30.000000,0.859863,0.035645,-0.535156
1762435484044178,102.500000,31.463415,-57.439026,0.859863,0.037598,-0.535645
1762435484054225,47.621952,26.768293,-49.268295,0.858398,0.038086,-0.535156
1762435484064271,90.914635,32.012196,-62.926830,0.855469,0.035645,-0.535156
1762435484074319,73.902443,21.158537,-54.329269,0.853027,0.035645,-0.537109
1762435484084366,19.512196,-17.439024,-49.878052,0.854004,0.037598,-0.536133
1762435484094412,71.097565,23.658537,-71.402443,0.852539,0.036621,-0.533203
1762435484104460,123.963417,50.731709,-81.890244,0.856445,0.034180,-0.534668
1762435484114507,44.451221,17.926830,-47.378052,0.855957,0.031738,-0.534180
1762435484124553,-1.097561,61.829269,-20.731709,0.856445,0.031250,-0.532227
1762435484134600,131.768295,81.890244,-68.414635,0.857910,0.030762,-0.532715
1762435484144647,70.670731,59.329269,-49.512196,0.854492,0.027344,-0.535645
1762435484154693,-33.780487,40.243904,-4.085366,0.854004,0.024902,-0.537109
1762435484164740,25.609756,35.548782,-21.585367,0.853516,0.023926,-0.538086
1762435484174787,48.353661,25.060976,-34.878048,0.854980,0.023438,-0.540039
1762435484184834,-35.731709,1.585366,-5.609756,0.853516,0.020508,-0.541504
1762435484194881,-48.475613,14.207317,12.378049,0.855957,0.018066,-0.541992
1762435484204928,3.536585,6.524390,-0.060976,0.857910,0.017090,-0.542480
1762435484214974,-56.158539,18.170732,25.914635,0.855957,0.015625,-0.542969
1762435484225021,-66.890244,16.158537,34.817074,0.855469,0.014648,-0.543457
1762435484235069,-34.085365,4.085366,21.341463,0.854980,0.014648,-0.543945
1762435484245115,-54.695122,3.292683,27.378050,0.854980,0.014160,-0.544922
1762435484255162,-69.268295,-9.817074,34.024391,0.854980,0.012695,-0.545898
1762435484265209,-30.609756,-23.475611,21.402439,0.855469,0.013184,-0.546387
1762435484275256,-44.756100,-28.170732,20.975611,0.855469,0.015137,-0.546387
1762435484285303,-48.048782,-18.170732,18.597561,0.857422,0.015137,-0.546875
1762435484295350,6.219512,-36.463417,1.890244,0.855957,0.013184,-0.546875
1762435484305396,-32.378048,-40.426830,22.073172,0.852051,0.013184,-0.546387
1762435484315443,-61.829269,-47.926830,28.780489,0.848633,0.015137,-0.545410
1762435484325490,-14.817074,-46.768295,1.829268,0.847168,0.017090,-0.543945
1762435484335538,0.304878,-55.670734,-9.024390,0.847656,0.016113,-0.542969
1762435484345584,-25.426830,-33.658539,11.707317,0.847656,0.014160,-0.541992
1762435484355630,-16.036585,-35.426830,12.378049,0.850586,0.015625,-0.541504
1762435484365677,23.414635,-32.439026,-5.853659,0.847168,0.016602,-0.538574
1762435484375724,12.256098,11.829268,2.378049,0.844727,0.016602,-0.537109
1762435484385771,-13.841464,-11.646341,10.365854,0.847656,0.016113,-0.539062
1762435484395818,-17.134148,-29.024391,11.158537,0.849609,0.015137,-0.538086
1762435484405865,14.878049,3.902439,13.109756,0.848633,0.013672,-0.538574
1762435484415912,-35.731709,-13.658537,33.414635,0.848145,0.014160,-0.540527
1762435484425959,-61.951221,-53.902439,33.719513,0.848633,0.015137,-0.539062
1762435484436005,-51.341465,1.524390,41.158539,0.848633,0.014160,-0.537109
1762435484446052,-40.853661,-2.926829,40.304878,0.856934,0.014160,-0.541016
1762435484456099,-42.134148,-39.756100,46.646343,0.854980,0.012695,-0.540527
1762435484466146,-123.902443,-2.012195,85.792686,0.853516,0.014648,-0.539551
1762435484476193,-33.231709,-32.439026,37.317074,0.854004,0.019043,-0.540039
1762435484486240,-54.634148,-37.012196,34.634148,0.845703,0.019043,-0.538086
1762435484496287,-77.378052,-17.317074,49.695122,0.848633,0.019531,-0.536621
1762435484506333,-78.231712,-35.365856,46.646343,0.851562,0.021484,-0.538086
1762435484516380,-52.743904,-30.853659,29.268293,0.857910,0.023926,-0.534668
1762435484526430,37.073174,40.548782,8.231708,0.854980,0.023926,-0.533203
1762435484536474,-25.121952,37.378048,25.365854,0.859863,0.026367,-0.536133
1762435484546521,-0.609756,-17.804878,2.682927,0.857910,0.027344,-0.535156
1762435484556570,-10.609756,54.695122,14.451220,0.854980,0.027344,-0.535645
1762435484566615,31.829269,-1.951220,-12.134147,0.862305,0.029785,-0.541016
1762435484576662,-18.902439,-51.890244,-11.280488,0.859863,0.030273,-0.540527
1762435484586711,7.134147,-7.500000,-18.963415,0.867676,0.031250,-0.542480
1762435484596755,63.109756,-42.012196,-43.414635,0.870605,0.030273,-0.545410
1762435484606802,-12.560976,-57.560978,-21.036587,0.875000,0.030762,-0.544922
1762435484616851,53.353661,-20.243902,-39.085365,0.872559,0.030273,-0.541992
1762435484626896,69.451218,5.060976,-41.707317,0.872559,0.029785,-0.542480
1762435484636943,17.987804,-40.487804,-31.585367,0.875977,0.030762,-0.543457
1762435484646992,-31.768293,-1.524390,-9.268293,0.876953,0.028809,-0.541016
1762435484657036,100.121956,39.024391,-41.036587,0.883301,0.026367,-0.542480
1762435484667083,26.097561,0.121951,-14.207317,0.881836,0.025879,-0.543457
1762435484677132,-77.134148,19.329269,21.463415,0.889160,0.027344,-0.543945
1762435484687177,63.902439,52.682930,-25.121952,0.893555,0.025391,-0.544434
1762435484697224,75.121956,39.268295,-26.585367,0.898438,0.023926,-0.547852
1762435484707273,-7.256098,-1.524390,-0.426829,0.901367,0.024902,-0.550293
1762435484717318,-53.780491,-9.146341,-0.548781,0.903320,0.029297,-0.550293
1762435484727365,146.036591,21.829269,-86.768295,0.903320,0.032227,-0.546387
1762435484737413,102.012199,44.146343,-78.963417,0.899902,0.033203,-0.543457
1762435484747459,-51.585365,4.939024,-39.573174,0.910156,0.036133,-0.542480
1762435484757505,204.573181,86.707321,-128.170731,0.910156,0.037109,-0.536133
1762435484767555,203.231705,220.304886,-115.121956,0.906738,0.039062,-0.530273
1762435484777599,85.731712,177.012192,-97.560974,0.911133,0.041504,-0.529297
1762435484787646,301.768311,205.426834,-192.560974,0.902832,0.040527,-0.524902
1762435484797695,432.682922,270.243896,-246.036591,0.895020,0.039551,-0.526367
1762435484807740,247.865860,179.268295,-211.890244,0.891113,0.038086,-0.535156
1762435484817786,303.902435,138.231705,-249.939026,0.888184,0.034180,-0.535645
1762435484827835,789.268311,174.390244,-346.280487,0.894531,0.032715,-0.539551
1762435484837880,413.841461,85.731712,-307.987823,0.902832,0.029785,-0.548340
1762435484847928,126.707321,0.365854,-232.804886,0.895996,0.015625,-0.547852
1762435484857976,300.914642,42.500000,-256.097565,0.878418,0.007324,-0.544922
1762435484868021,1398.719604,123.231712,-466.646362,0.855957,-0.004395,-0.541992
1762435484878067,977.134155,13.109756,-400.000000,0.820312,-0.012207,-0.544434
1762435484888116,-1231.768311,-102.073174,238.658539,0.892578,-0.004395,-0.566406
1762435484898161,-356.829285,-28.719513,89.573174,0.896484,-0.057617,-0.562012
1762435484908208,113.902443,300.365875,132.743912,0.926758,-0.053223,-0.601074
1762435484918256,-1228.292725,-516.707336,304.024384,0.949707,-0.026367,-0.609863
1762435484928302,-273.841461,-74.451218,86.280487,0.882324,-0.031738,-0.568359
1762435484938349,1340.853638,182.560974,-233.231720,0.892090,-0.027832,-0.592285
1762435484948397,-215.609756,-619.512207,155.000000,0.856934,-0.042969,-0.580078
1762435484958442,-868.475647,-81.036591,340.060974,0.824219,-0.045898,-0.541992
1762435484968489,741.707336,194.207321,-70.914635,0.819824,-0.020996,-0.542969
1762435484978538,748.170776,-215.975616,-268.902435,0.785645,0.001465,-0.541504
1762435484988583,-50.304878,-14.939025,-18.048780,0.779297,-0.012695,-0.521484
1762435484998630,1604.817139,315.182922,-248.353668,0.787598,-0.037598,-0.534180
1762435485008677,401.158539,-212.317078,-42.195122,0.796387,-0.012695,-0.544434
1762435485018724,145.792679,11.463415,-43.292683,0.800781,-0.000488,-0.513672
1762435485028771,1425.365845,335.853668,-308.414642,0.835449,-0.009277,-0.543457
1762435485038819,-106.890244,-243.902451,84.451225,0.854004,-0.031250,-0.560547
1762435485048865,-214.756104,-3.475610,242.926834,0.860840,-0.030273,-0.545410
1762435485058911,1076.951294,280.975616,-61.036587,0.861328,-0.014160,-0.553223
1762435485068959,115.670738,-132.743912,-1.463415,0.870117,-0.007324,-0.563477
1762435485079005,25.792683,-0.365854,71.585365,0.844727,-0.031738,-0.548828
1762435485089052,1196.585449,191.707321,-15.243903,0.861816,-0.048340,-0.574707
1762435485099100,238.597565,-359.207336,131.524399,0.872559,-0.039062,-0.586914
1762435485109146,-239.390244,-117.134148,255.121964,0.881836,-0.026367,-0.574219
1762435485119192,1074.573242,-11.951220,-86.951225,0.912109,-0.031250,-0.590820
1762435485129241,458.780487,-296.585388,62.926830,0.937500,-0.040527,-0.602539
1762435485139285,-390.792694,-116.341469,437.682922,0.961914,-0.040039,-0.594727
1762435485149333,97.256104,34.512196,281.036591,1.005859,-0.027832,-0.596680
1762435485159381,238.536591,-113.170731,166.524399,1.012207,-0.017578,-0.594238
1762435485169427,-42.987804,96.829269,324.207336,1.003906,-0.015625,-0.587402
1762435485179473,-162.134155,103.841469,398.597565,1.006348,-0.011230,-0.593750
1762435485189521,-319.329285,-178.048782,410.975616,0.984863,0.006348,-0.593750
1762435485199567,-829.756104,-139.939026,449.695129,0.971680,0.029785,-0.581543
1762435485209614,-777.317078,-129.817078,454.451233,0.969727,0.044922,-0.579590
1762435485219662,-602.560974,-200.853668,359.634155,0.979492,0.051758,-0.583984
1762435485229708,-412.926849,-273.841461,260.609772,0.998535,0.068359,-0.573730
1762435485239755,-205.243912,-69.451218,157.865860,0.995605,0.092285,-0.562012
1762435485249802,136.219513,-89.390244,-70.426834,1.000977,0.112305,-0.559082
1762435485259849,-14.207317,-178.963425,-78.109756,0.979492,0.116699,-0.555176
1762435485269895,-97.865852,-151.524399,-41.585365,0.970703,0.122070,-0.555664
1762435485279943,-45.426830,-305.670746,-109.634148,0.951660,0.134277,-0.547852
1762435485289989,-243.170731,-194.329269,-69.817078,0.923828,0.144531,-0.533691
1762435485300036,-228.841476,-225.487808,-135.609756,0.929199,0.148438,-0.524902
1762435485310083,74.756096,-212.621964,-246.463425,0.924805,0.146484,-0.508301
1762435485320130,-283.353668,42.317074,-63.902439,0.926270,0.147949,-0.488770
1762435485330177,169.817078,266.158539,-204.512207,0.920410,0.149414,-0.476562
1762435485340224,154.878052,262.682922,-253.841476,0.898438,0.157715,-0.461426
1762435485350271,27.134148,391.768311,-211.036591,0.883301,0.152344,-0.452637
1762435485360318,23.658537,355.243896,-208.841461,0.885254,0.150391,-0.458496
1762435485370365,-258.536591,405.243927,-89.024391,0.894043,0.149414,-0.459473
1762435485380411,-101.280487,700.121948,-161.158539,0.940430,0.158691,-0.465332
1762435485390458,874.451233,651.463440,-482.743927,0.980957,0.152344,-0.474121
1762435485400505,829.817078,610.000000,-566.402466,1.023438,0.139160,-0.502441
1762435485410551,671.890259,302.500000,-590.060974,1.048340,0.124512,-0.523926
1762435485420598,1400.670776,351.890259,-1105.243896,1.071289,0.103516,-0.541016
1762435485430646,1795.792725,147.560974,-986.463440,1.103516,0.081543,-0.582520
1762435485440692,678.780518,-280.792694,-576.951233,1.134766,0.052246,-0.611816
1762435485450739,142.073181,-445.000000,-294.573181,1.148438,0.023926,-0.631836
1762435485460786,-590.670715,-952.682922,-80.548782,1.151367,-0.006348,-0.639648
1762435485470833,-738.780518,-576.707336,88.109756,1.137207,-0.035156,-0.625977
1762435485480879,-772.865845,-155.182938,247.560974,1.124512,-0.048828,-0.608398
1762435485490927,-409.085388,-44.451221,110.121956,1.124023,-0.051758,-0.594727
1762435485500973,227.073181,41.585365,-154.329269,1.112793,-0.050781,-0.590820
1762435485511020,-18.597561,18.170732,-78.963417,1.106934,-0.059082,-0.596191
1762435485521068,-432.378052,-27.439026,95.914635,1.098145,-0.074219,-0.605957
1762435485531114,-226.341461,-159.634155,20.914635,1.091309,-0.071289,-0.613770
1762435485541161,31.951220,-323.780487,-151.158539,1.057617,-0.057129,-0.606934
1762435485551207,-142.500000,-332.987823,-151.951218,0.998535,-0.056152,-0.595215
1762435485561254,115.182930,-360.792694,-293.109772,0.971191,-0.049805,-0.577637
1762435485571301,178.902451,-281.402435,-365.243896,0.969238,-0.043945,-0.555664
1762435485581348,1126.829346,-69.390244,-547.012207,0.969238,-0.050293,-0.537109
1762435485591395,283.414642,71.280487,-325.000000,0.948242,-0.067383,-0.514648
1762435485601442,155.426834,276.402435,-204.695129,0.925293,-0.070312,-0.496582
1762435485611489,324.756104,431.036591,-250.426834,0.907227,-0.077148,-0.486816
1762435485621536,1272.682983,340.609772,-556.341492,0.886719,-0.075195,-0.490723
1762435485631582,720.853699,224.817078,-517.743896,0.871582,-0.093262,-0.496582
1762435485641630,755.182922,221.463425,-469.878052,0.883789,-0.114258,-0.509277
1762435485651676,323.658539,131.585373,-274.573181,0.912598,-0.126465,-0.524414
1762435485661723,2.804878,56.219513,-79.695122,0.933105,-0.155273,-0.531738
1762435485671769,-363.292694,141.219513,214.451218,0.919922,-0.176270,-0.522949
1762435485681816,-941.036621,373.963409,528.414673,0.911133,-0.187012,-0.513184
1762435485691864,-577.987793,400.975616,572.500000,0.928223,-0.189453,-0.511230
1762435485701911,-34.024391,569.024414,463.109772,0.934082,-0.191406,-0.503906
1762435485711957,-865.243896,819.390259,932.256104,0.962402,-0.184082,-0.519531
1762435485722004,-1925.000000,486.402466,1378.048828,1.030762,-0.165527,-0.547852
1762435485732051,-1511.707397,107.134148,1171.158569,1.108398,-0.118652,-0.562012
1762435485742098,-965.243896,126.951225,827.926819,1.153809,-0.063965,-0.575684
1762435485752144,-1561.097656,-73.902443,787.804871,1.167969,-0.032227,-0.596191
1762435485762191,-984.573181,-300.243896,474.573181,1.144531,-0.027344,-0.606445
1762435485772238,-175.304886,-435.365875,205.304886,1.133301,-0.030762,-0.623535
1762435485782285,-57.317074,-1062.012207,170.182938,1.150391,-0.018555,-0.637695
1762435485792332,-581.463440,-847.439026,233.841476,1.168945,0.019531,-0.625488
1762435485802379,-582.500000,-639.878052,90.243904,1.179199,0.037109,-0.600586
1762435485812426,882.134155,-425.487823,-353.292694,1.188965,0.059570,-0.575195
1762435485822473,509.817078,-72.317078,-217.317078,1.148438,0.064941,-0.535156
1762435485832520,277.682922,208.902451,-130.182922,1.125000,0.084961,-0.516113
1762435485842566,558.475647,52.560978,-227.621964,1.091797,0.086914,-0.502930
1762435485852614,727.073181,261.036591,-212.987808,1.054199,0.087891,-0.495117
1762435485862660,-171.524399,210.792694,76.463417,1.046387,0.095703,-0.503906
1762435485872707,143.475616,-14.573171,-81.097565,1.030762,0.100586,-0.504883
1762435485882754,1290.670776,96.341469,-341.890259,1.027344,0.113281,-0.508789
1762435485892801,107.560982,-142.804886,-175.426834,1.015137,0.119141,-0.519531
1762435485902848,227.560974,-136.951218,-226.890244,0.990723,0.115723,-0.514648
1762435485912895,465.975616,-186.646347,-387.865875,1.000488,0.141602,-0.504883
1762435485922941,237.439026,-4.146341,-341.890259,0.977051,0.130371,-0.479980
1762435485932989,1107.195190,336.097565,-400.426849,0.996582,0.128906,-0.480469
1762435485943035,113.963417,173.475616,-202.134155,0.987305,0.116699,-0.472656
1762435485953082,1101.219482,609.451233,-337.317078,0.972656,0.107422,-0.467285
1762435485963129,586.829285,516.341492,-275.365875,0.964844,0.104980,-0.489258
1762435485973176,-1102.134155,129.512192,132.378052,0.932617,0.089844,-0.504395
1762435485983222,66.280487,135.792679,-137.134155,0.932129,0.079590,-0.516113
1762435485993269,-151.036591,8.170732,-64.146339,0.933594,0.087402,-0.538086
1762435486003316,-1967.987793,-147.073181,347.439026,0.977539,0.089844,-0.559082
1762435486013363,-979.451233,-140.182938,167.804886,1.004883,0.073730,-0.562988
1762435486023410,310.365875,41.097561,-168.719513,1.021973,0.060059,-0.563965
1762435486033457,304.329285,0.060976,-49.695122,1.004883,0.081055,-0.577148
1762435486043504,-1520.304932,-131.463425,184.207321,0.982422,0.102051,-0.569824
1762435486053550,-371.463409,-36.707317,-149.695129,0.961914,0.112305,-0.556641
1762435486063597,-754.756104,107.865860,-92.682930,0.963867,0.101562,-0.571289
1762435486073644,-368.231720,-41.829269,-196.097565,1.054199,0.101074,-0.588379
1762435486083691,1037.256104,-44.512196,-571.585388,1.063477,0.097656,-0.578613
1762435486093738,360.365875,110.731712,-399.207336,1.058105,0.103027,-0.585938
1762435486103785,-868.170776,-105.365860,-206.097565,1.050781,0.093750,-0.591797
1762435486113832,994.573181,-11.158537,-726.036621,1.006348,0.074707,-0.564453
1762435486123878,470.060974,196.707321,-652.926819,0.974609,0.088867,-0.562012
1762435486133926,-710.670776,-62.804878,-293.597565,0.984863,0.056641,-0.558105
1762435486143972,1997.987793,130.731705,-1405.853638,0.983398,0.041504,-0.543457
1762435486154019,515.060974,388.963409,-510.243927,0.976074,0.012207,-0.551758
1762435486164066,488.780487,71.829269,-322.987823,0.991211,-0.033203,-0.569336
1762435486174113,702.134155,55.853661,-273.048798,0.958496,-0.048828,-0.560059
1762435486184159,-612.804871,240.853668,144.390244,0.953125,-0.058594,-0.583496
1762435486194206,-1038.597534,-378.170746,245.853668,0.970215,-0.090820,-0.595703
1762435486204253,-220.365860,-107.621956,213.841461,0.952637,-0.107422,-0.582520
1762435486214300,-1997.926880,2.743902,884.939026,0.997559,-0.119141,-0.604492
1762435486224347,-960.975647,-297.073181,673.719543,1.013184,-0.132324,-0.594727
1762435486234394,-506.646362,62.621952,485.731720,0.989258,-0.102539,-0.571777
1762435486244441,-757.134155,109.207321,457.134155,0.973633,-0.093750,-0.573242
1762435486254487,-181.707321,-143.231705,245.853668,0.939941,-0.099609,-0.567383
1762435486264535,-777.256104,-15.243903,452.439026,0.919434,-0.083496,-0.557617
1762435486274581,-993.841492,-16.097561,494.756104,0.925781,-0.072754,-0.557129
1762435486284628,243.597565,-141.707321,40.304878,0.919434,-0.065918,-0.551758
1762435486294675,-4.939024,-10.487805,142.378052,0.889648,-0.055664,-0.544434
1762435486304722,-1362.804932,-11.646341,453.658539,0.886230,-0.051758,-0.548340
1762435486314769,-219.573181,-202.012207,161.768295,0.903320,-0.039062,-0.541016
1762435486324815,50.000000,42.987804,60.182930,0.897949,-0.024414,-0.522461
1762435486334862,-56.402439,301.768311,130.670731,0.903320,-0.024902,-0.527344
1762435486344909,159.390244,-25.121952,24.878050,0.895508,-0.019531,-0.532715
1762435486354956,-235.182938,68.292686,158.841461,0.869629,-0.004395,-0.516602
1762435486365003,-47.926830,269.573181,60.975613,0.886719,0.008301,-0.518066
1762435486375050,456.097565,96.524391,-168.109756,0.891113,0.002441,-0.530762
1762435486385097,258.170746,45.060978,-63.780491,0.884766,-0.008301,-0.535645
1762435486395144,351.829285,119.451225,-33.048782,0.878418,-0.009766,-0.540527
1762435486405190,1037.073242,1.097561,-177.743912,0.895020,0.001465,-0.556152
1762435486415238,235.243912,-156.585373,-88.353661,0.902344,0.006836,-0.567383
1762435486425284,-544.512207,-90.731712,164.024399,0.913086,-0.007812,-0.578125
1762435486435331,92.500000,-275.182922,-5.670732,0.936523,-0.025391,-0.596191
1762435486445378,332.134155,-389.146362,-1.768293,0.938965,-0.024902,-0.598145
1762435486455424,-881.829285,-278.414642,326.341461,0.949707,-0.011719,-0.600586
1762435486465472,-504.146362,-391.158539,170.670731,0.962402,-0.017090,-0.601074
1762435486475518,248.109756,-365.304901,-13.719513,0.962891,-0.023926,-0.595703
1762435486485565,-365.853668,-245.731720,270.182922,0.968262,-0.021973,-0.594238
1762435486495612,-835.243896,-282.926849,346.036591,0.978027,-0.023926,-0.592773
1762435486505659,136.524399,-313.780487,62.621952,0.981934,-0.010254,-0.583496
1762435486515706,-202.500000,-156.951218,163.048782,0.972656,-0.003906,-0.575684
1762435486525753,-358.902435,-148.719513,226.707321,0.982910,-0.014160,-0.581543
1762435486535799,-49.085365,-317.987823,143.536591,0.977539,-0.012695,-0.578125
1762435486545846,-818.841492,-189.268295,337.012207,0.964355,0.000488,-0.567871
1762435486555894,-382.134155,-187.743912,182.317078,0.963379,0.001953,-0.562500
1762435486565942,221.341461,-235.792694,-5.792683,0.942871,0.003906,-0.553711
1762435486575987,-675.914673,-161.402435,307.317078,0.926270,0.002441,-0.544922
1762435486586034,-526.707336,-131.402435,311.036591,0.923828,-0.003906,-0.537109
1762435486596081,-295.426849,-125.792686,287.743896,0.916992,0.010254,-0.523926
1762435486606127,-846.341492,33.719513,359.878052,0.906738,0.014160,-0.505859
1762435486616175,34.207317,170.731705,172.926834,0.910645,0.023926,-0.500000
1762435486626221,-140.121948,162.682938,208.231705,0.890625,0.027832,-0.493652
1762435486636268,-457.926849,247.682938,347.012207,0.880371,0.035156,-0.493164
1762435486646315,-248.658539,114.207321,226.646347,0.877441,0.049805,-0.496582
1762435486656362,-251.402451,108.841469,167.134155,0.876465,0.064453,-0.495117
1762435486666409,-279.085358,121.890244,138.841461,0.889160,0.070312,-0.500488
1762435486676455,54.024391,72.987808,8.536586,0.894531,0.070801,-0.503418
1762435486686502,212.073181,95.731712,-61.951221,0.892090,0.082031,-0.502930
1762435486696549,-65.000000,128.231705,-6.524390,0.882324,0.092773,-0.499023
1762435486706596,165.853668,154.939026,-124.878052,0.885742,0.097168,-0.496582
1762435486716643,431.097565,200.548782,-235.670731,0.891113,0.099121,-0.499512
1762435486726690,257.439026,236.585373,-179.939026,0.906738,0.098633,-0.506836
1762435486736737,976.646362,194.512207,-323.048798,0.912109,0.096191,-0.515625
1762435486746783,837.317078,130.121948,-397.317078,0.907715,0.096680,-0.525879
1762435486756830,507.073181,9.390244,-338.353668,0.907227,0.099121,-0.538574
1762435486766877,280.426849,-135.609756,-348.048798,0.908203,0.100586,-0.545898
1762435486776924,1007.926880,-194.695129,-459.512207,0.918457,0.103516,-0.550781
1762435486786971,425.670746,-231.463425,-404.512207,0.930176,0.104980,-0.552246
1762435486797018,144.634155,-197.439026,-313.658539,0.948730,0.095703,-0.553223
1762435486807065,422.987823,-235.182938,-404.390259,0.941406,0.093262,-0.543457
1762435486817111,162.621948,-65.548782,-296.524384,0.916992,0.087891,-0.520996
1762435486827159,254.695129,147.073181,-284.451233,0.918457,0.075684,-0.513672
1762435486837205,311.036591,43.292683,-301.829285,0.914551,0.065918,-0.509766
1762435486847252,110.487808,168.963425,-174.024399,0.882812,0.050293,-0.494141
1762435486857299,-59.207317,338.170746,-59.878052,0.875000,0.047363,-0.490723
1762435486867346,178.414642,203.109756,-175.548782,0.869141,0.038086,-0.490234
1762435486877393,279.207336,288.719513,-209.634155,0.855469,0.029297,-0.483887
1762435486887440,-115.426834,413.841461,-23.414635,0.874512,0.015137,-0.493164
1762435486897486,83.658539,306.402435,-39.756100,0.886230,-0.004883,-0.502930
1762435486907533,-155.548782,380.000000,95.060974,0.886230,-0.009277,-0.504395
1762435486917580,-432.500000,484.146362,237.560974,0.902832,-0.017578,-0.516113
1762435486927627,-523.048767,343.414642,300.365875,0.924805,-0.032715,-0.535156
1762435486937674,-1131.646362,289.634155,581.097595,0.939453,-0.035645,-0.548828
1762435486947721,-1250.975586,245.975616,707.560974,0.950195,-0.023438,-0.559570
1762435486957767,-736.646362,76.646347,474.207336,0.952637,-0.001465,-0.564941
1762435486967814,-910.731750,48.536587,450.365875,0.948730,0.021973,-0.569336
1762435486977862,-635.182922,8.658537,278.170746,0.942383,0.031738,-0.575684
1762435486987908,129.634155,-184.573181,-11.402439,0.926270,0.032227,-0.585938
1762435486997955,134.146347,-289.024384,-25.609756,0.923340,0.036621,-0.589844
1762435487008002,441.524414,-362.804901,-157.987808,0.928711,0.056152,-0.589355
1762435487018048,524.573181,-437.682922,-184.207321,0.910156,0.080078,-0.578125
1762435487028095,-151.219513,-283.475616,-101.280487,0.916992,0.091797,-0.562988
1762435487038142,718.902466,-194.878052,-361.097565,0.940918,0.083008,-0.554199
1762435487048189,856.402466,-74.817078,-335.243896,0.932129,0.080566,-0.543945
1762435487058236,-30.487806,61.341465,-13.902439,0.914551,0.083984,-0.533203
1762435487068283,545.914673,38.109756,-207.926834,0.906250,0.085938,-0.526855
1762435487078329,754.756104,52.439026,-254.817078,0.896484,0.080078,-0.529297
1762435487088377,-157.439026,16.829269,59.268295,0.895508,0.064941,-0.540039
1762435487098423,45.975613,-213.292694,37.378048,0.876465,0.056641,-0.541504
1762435487108470,-159.024399,-225.853668,116.890244,0.823730,0.070312,-0.519043
1762435487118518,-465.548798,20.121952,176.097565,0.850586,0.089844,-0.510742
1762435487128564,-169.451218,87.134148,74.024391,0.874023,0.067383,-0.519043
1762435487138611,251.219513,156.768295,37.134148,0.948730,0.057129,-0.535156
1762435487148658,75.853661,106.341469,102.073174,0.969238,0.066895,-0.555176
1762435487158704,362.317078,18.292683,-41.036587,0.977539,0.073242,-0.566406
1762435487168751,230.548782,-224.207321,6.402439,0.948730,0.089355,-0.591309
1762435487178797,-1377.926880,-421.402435,141.219513,0.953125,0.090820,-0.600098
1762435487188845,-22.012196,-553.414673,-193.719513,0.960449,0.080078,-0.615234
1762435487198892,169.878052,-880.121948,-227.378052,0.999512,0.064453,-0.626465
1762435487208939,-165.060974,-750.975647,-10.365854,1.005371,0.060059,-0.615234
1762435487218985,-1047.561035,-540.121948,203.536591,1.003418,0.057129,-0.590820
1762435487229032,-84.695122,-410.365875,-28.170732,0.992188,0.060547,-0.556641
1762435487239080,185.670731,-58.841465,-110.731712,0.951172,0.060547,-0.512207
1762435487249126,49.756100,314.939026,40.060978,0.930176,0.049805,-0.488281
1762435487259173,-14.268293,246.768295,105.792686,0.916016,0.046387,-0.485352
1762435487269220,-571.951233,227.317078,327.439026,0.885254,0.046387,-0.472656
1762435487279266,-552.926819,360.304901,318.475616,0.880859,0.062500,-0.466797
1762435487289314,182.987808,272.865875,0.609756,0.870605,0.073242,-0.466309
1762435487299361,102.621956,305.548798,-34.329269,0.861816,0.075684,-0.476074
1762435487309407,-264.390259,136.951218,79.329269,0.866699,0.069336,-0.487793
1762435487319454,-162.743912,84.451225,72.195122,0.868652,0.066895,-0.488281
1762435487329502,-75.548782,192.378052,41.646343,0.882812,0.078125,-0.487793
1762435487339548,4.878049,197.317078,-11.890244,0.880859,0.074707,-0.485352
1762435487349594,-209.573181,307.073181,111.402443,0.883301,0.075684,-0.480957
1762435487359642,-334.329285,514.756104,199.756104,0.934570,0.084473,-0.481445
1762435487369688,1145.975586,808.292725,-179.817078,0.954102,0.074707,-0.494141
1762435487379735,675.426819,528.536621,-173.536591,0.967773,0.075195,-0.525391
1762435487389783,46.524391,225.975616,-50.304878,0.981445,0.070801,-0.551758
1762435487399829,341.646362,98.048782,-161.829269,0.947266,0.061523,-0.572266
1762435487409875,470.914642,-158.658539,-226.585373,0.934570,0.053711,-0.598145
1762435487419924,935.060974,-447.682922,-340.426849,0.943848,0.055664,-0.612305
1762435487429969,99.695122,-496.524414,-173.658539,0.959961,0.074707,-0.619141
1762435487440016,-455.182953,-888.475647,-104.451225,0.980957,0.078125,-0.614258
1762435487450064,377.621948,-459.451233,-369.451233,0.979492,0.053711,-0.589355
1762435487460110,265.121948,-94.634148,-78.963417,0.958984,0.049805,-0.562988
1762435487470157,-163.780487,152.621948,94.512199,0.949219,0.043457,-0.541992
1762435487480204,318.048798,142.743912,-137.987808,0.934082,0.050293,-0.526367
1762435487490251,938.414673,381.219513,-208.597565,0.899414,0.033691,-0.517090
1762435487500297,-8.475610,258.963409,19.878050,0.903320,0.027832,-0.540039
1762435487510346,-319.268311,-76.402443,126.280487,0.883789,0.018555,-0.540527
1762435487520391,243.841476,117.317078,-40.000000,0.877930,0.024414,-0.538574
1762435487530438,866.341492,-103.597565,-236.951218,0.881836,0.042969,-0.549316
1762435487540486,-333.414642,-175.975616,3.475610,0.875000,0.033691,-0.547363
1762435487550531,213.292694,-51.341465,-119.146347,0.895020,0.020020,-0.545410
1762435487560578,242.621964,-64.695122,-100.548782,0.887207,0.024414,-0.536621
1762435487570627,-378.780487,117.621956,161.524399,0.874023,0.021973,-0.520508
1762435487580672,377.926849,208.231705,-110.609756,0.872559,0.022461,-0.508789
1762435487590719,600.487793,348.658539,-106.097565,0.849121,0.017090,-0.500000
1762435487600767,-191.768295,414.207336,144.817078,0.860352,0.010254,-0.507324
1762435487610812,269.085358,305.060974,20.182928,0.856934,0.000000,-0.509766
1762435487620859,340.304901,429.390259,16.097561,0.857910,0.001465,-0.520020
1762435487630908,65.304878,226.829269,56.097561,0.882812,0.007812,-0.541992
1762435487640953,-172.195129,104.329269,110.609756,0.886719,0.000977,-0.551270
1762435487651000,37.804878,138.780487,87.804878,0.908203,-0.008301,-0.569336
1762435487661048,191.280487,-123.902443,32.865856,0.918457,-0.009766,-0.584473
1762435487671093,-155.243912,-140.426834,156.829269,0.911621,-0.004395,-0.582520
1762435487681140,-210.487808,-114.146347,156.036591,0.910156,0.005371,-0.583496
1762435487691189,-219.573181,-212.865860,128.841461,0.904785,0.006348,-0.582031
1762435487701234,-234.024399,-174.756104,164.695129,0.901367,0.002930,-0.575195
1762435487711281,-23.719513,-76.219513,129.268295,0.902344,0.007324,-0.570312
1762435487721330,18.658537,-86.036591,89.939026,0.901367,0.020020,-0.566406
1762435487731374,-3.902439,-92.134148,52.500000,0.898438,0.029297,-0.561035
1762435487741421,98.414635,-38.719513,9.817074,0.897461,0.030273,-0.559570
1762435487751471,116.829269,-75.548782,15.304878,0.897949,0.030762,-0.564941
1762435487761515,5.670732,-193.597565,26.768293,0.897461,0.040527,-0.563477
1762435487771562,90.000000,-160.914642,-44.817074,0.891602,0.053223,-0.553711
1762435487781609,190.243912,-88.170731,-112.743904,0.890625,0.059082,-0.550781
1762435487791655,244.817078,-162.865860,-148.841461,0.891113,0.058594,-0.548340
1762435487801702,144.451218,-118.475609,-92.073174,0.879883,0.059570,-0.536133
1762435487811750,90.121956,7.560976,-60.243904,0.874023,0.065918,-0.525391
1762435487821796,298.658539,27.682928,-159.146347,0.866211,0.069336,-0.517090
1762435487831843,300.487823,88.292686,-163.048782,0.860840,0.068848,-0.511230
1762435487841890,182.439026,156.890244,-89.939026,0.860840,0.062988,-0.510742
1762435487851936,218.719513,143.658539,-76.829269,0.862793,0.060059,-0.514160
1762435487861983,257.378052,108.963417,-101.280487,0.865234,0.064453,-0.517578
1762435487872031,219.451218,111.951225,-118.963417,0.874023,0.067871,-0.523438
1762435487882078,205.000000,46.280487,-134.817078,0.886719,0.062012,-0.534668
1762435487892124,193.841461,-32.621952,-105.609756,0.889160,0.050293,-0.543945
1762435487902171,35.487804,-79.573174,-21.951220,0.887207,0.047852,-0.548828
1762435487912218,12.500000,-127.743904,-30.121952,0.882812,0.055664,-0.547363
1762435487922264,-162.439026,-121.768295,3.536585,0.878906,0.055664,-0.543945
1762435487932311,-237.682938,-73.170731,69.085365,0.880371,0.041016,-0.543945
1762435487942358,-247.317078,-74.939026,142.865860,0.884766,0.033691,-0.544434
1762435487952405,-575.548767,-28.475611,253.231720,0.886719,0.040039,-0.540527
1762435487962452,-422.195129,21.524391,171.219513,0.891113,0.046387,-0.537109
1762435487972499,-75.975609,28.658537,64.634148,0.890137,0.044434,-0.540039
1762435487982545,-548.780518,-17.317074,209.573181,0.889160,0.039062,-0.548340
1762435487992592,-676.768311,-117.987808,248.231720,0.890625,0.037109,-0.551758
1762435488002640,-145.426834,-145.243912,112.987808,0.887695,0.044922,-0.549316
1762435488012686,-368.536591,-136.890244,119.573174,0.887695,0.050293,-0.549316
1762435488022733,-718.841492,-160.304886,127.195122,0.889160,0.040527,-0.547363
1762435488032781,-114.085365,-138.902435,93.048782,0.888672,0.037598,-0.541992
1762435488042827,-645.975647,-73.536591,238.292694,0.879883,0.042969,-0.532227
1762435488052873,-441.768311,8.353659,179.268295,0.873047,0.045898,-0.519531
1762435488062921,-26.341465,61.585369,45.853661,0.865234,0.052734,-0.509277
1762435488072967,-313.170746,169.268295,154.878052,0.857910,0.051270,-0.502930
1762435488083014,-257.865845,210.792694,165.487808,0.862305,0.050293,-0.503418
1762435488093062,-189.817078,173.109756,125.487808,0.860840,0.060059,-0.501465
1762435488103107,-212.926834,237.621964,97.317078,0.860352,0.069336,-0.498535
1762435488113154,20.914635,259.390259,-18.536587,0.862793,0.071289,-0.504883
1762435488123202,-22.987806,164.756104,-25.182928,0.865723,0.068848,-0.513184
1762435488133248,-127.621956,118.719513,13.109756,0.866699,0.067871,-0.516602
1762435488143295,143.963425,146.524399,-94.268295,0.871582,0.073242,-0.519043
1762435488153343,286.890259,117.317078,-191.829269,0.876465,0.078125,-0.523926
1762435488163389,120.914635,106.646347,-157.378052,0.879395,0.073730,-0.528809
1762435488173435,301.585388,100.426834,-199.695129,0.883789,0.062988,-0.535645
1762435488183484,732.134155,47.195122,-247.743912,0.882812,0.055664,-0.543945
1762435488193529,322.804871,-18.353659,-175.060974,0.879883,0.052734,-0.551758
1762435488203576,116.829269,-83.658539,-128.536591,0.879883,0.049805,-0.559082
1762435488213623,161.280487,-164.573181,-145.060974,0.884277,0.041016,-0.567383
1762435488223670,89.939026,-225.487808,-95.609756,0.887207,0.029785,-0.573242
1762435488233717,2.621951,-251.402451,-33.536587,0.894043,0.023438,-0.575684
1762435488243763,4.573171,-266.219513,-26.707317,0.895996,0.022461,-0.572754
1762435488253810,3.841464,-227.682938,-22.012196,0.890625,0.018555,-0.565918
1762435488263857,50.000000,-181.158539,-11.524390,0.884766,0.012207,-0.560059
1762435488273904,-38.841465,-154.146347,49.817074,0.878906,0.009277,-0.553711
1762435488283951,-81.036591,-111.280487,81.768295,0.873047,0.007324,-0.544434
1762435488293997,79.451218,-37.621952,39.451221,0.863770,0.006836,-0.536621
1762435488304044,35.121952,-22.439026,58.841465,0.854980,0.007324,-0.531738
1762435488314091,-62.682930,-15.243903,104.512199,0.847168,0.004883,-0.526855
1762435488324138,-15.975610,17.134148,103.048782,0.846680,0.005859,-0.523438
1762435488334185,6.463415,32.500000,101.402443,0.844238,0.005859,-0.519531
1762435488344232,-24.573172,72.500000,128.231705,0.840820,0.005859,-0.517578
1762435488354279,-61.768295,59.573174,146.707321,0.842773,0.008301,-0.516602
1762435488364326,-77.560974,94.817078,166.463425,0.841797,0.008789,-0.513184
1762435488374372,-101.768295,155.792694,193.841461,0.851074,0.011719,-0.515137
1762435488384419,-101.219513,108.963417,190.792694,0.859863,0.014648,-0.517578
1762435488394466,-103.597565,171.951218,210.243912,0.863281,0.017090,-0.518066
1762435488404513,-122.926834,147.134155,211.585373,0.873047,0.023926,-0.524902
1762435488414560,-175.914642,95.731712,213.231720,0.875977,0.031250,-0.528809
1762435488424606,-187.743912,79.573174,199.329269,0.884766,0.038086,-0.533691
1762435488434653,-15.121952,50.792683,128.902435,0.888184,0.042969,-0.538086
1762435488444701,-154.268295,-7.682927,155.121948,0.892578,0.048340,-0.545410
1762435488454747,26.707317,-102.804878,66.402443,0.894531,0.055176,-0.546387
1762435488464794,-29.939026,-46.524391,70.609756,0.888184,0.063965,-0.546875
1762435488474841,-25.060976,-104.939026,28.353659,0.897461,0.072754,-0.550781
1762435488484888,80.792686,-147.621948,-32.317074,0.890625,0.075684,-0.547363
1762435488494934,53.536587,-68.536591,-18.841463,0.895996,0.081055,-0.545898
1762435488504981,155.975616,-146.524399,-84.268295,0.897949,0.087402,-0.545410
1762435488515028,97.500000,-118.963417,-84.085365,0.894531,0.091797,-0.540527
1762435488525075,192.500000,-82.012199,-129.573181,0.897461,0.095703,-0.539551
1762435488535122,214.390244,-103.719513,-150.060974,0.892090,0.095215,-0.536621
1762435488545169,161.402435,-79.146347,-127.560982,0.888184,0.096680,-0.533691
1762435488555215,128.719513,-108.414635,-134.634155,0.881836,0.099609,-0.528320
1762435488565263,182.317078,-45.975613,-157.012192,0.873047,0.099609,-0.520996
1762435488575309,155.365860,-25.975611,-150.365860,0.871582,0.100586,-0.518555
1762435488585356,112.804878,-35.304878,-138.048782,0.869141,0.097656,-0.512695
1762435488595403,141.402435,62.682930,-129.085373,0.867676,0.096680,-0.507812
1762435488605449,150.365860,75.487808,-139.878052,0.870605,0.098145,-0.506348
1762435488615496,197.865860,96.341469,-164.329269,0.866211,0.094727,-0.503906
1762435488625543,206.280487,129.451218,-161.768295,0.866699,0.092773,-0.505371
1762435488635590,103.109756,90.000000,-129.390244,0.864746,0.089355,-0.507812
1762435488645637,117.012199,79.939026,-133.048782,0.863281,0.085449,-0.508301
1762435488655685,176.768295,90.914635,-154.207321,0.861816,0.084473,-0.510254
1762435488665730,40.975609,69.329269,-114.390244,0.864258,0.081055,-0.512695
1762435488675778,54.207317,72.865852,-106.036591,0.868164,0.074219,-0.514160
1762435488685825,53.780491,105.304878,-83.231712,0.874512,0.069336,-0.516113
1762435488695871,-18.170732,117.439026,-41.768295,0.879883,0.064941,-0.519043
1762435488705918,-54.329269,132.926834,-13.780488,0.882812,0.060547,-0.522949
1762435488715965,-84.268295,121.402443,9.512196,0.885742,0.056641,-0.528320
1762435488726012,-228.170731,92.682930,70.243904,0.883789,0.052246,-0.534180
1762435488736058,-289.634155,47.987804,97.865852,0.884277,0.049316,-0.540527
1762435488746105,-264.268311,-6.951220,84.024391,0.883301,0.048828,-0.545410
1762435488756152,-344.695129,-36.219513,105.121956,0.884766,0.047363,-0.549316
1762435488766199,-340.975616,-65.182930,103.780487,0.887207,0.044434,-0.552734
1762435488776246,-223.353668,-84.512199,64.878052,0.890625,0.044434,-0.553223
1762435488786292,-163.231705,-82.560974,40.670734,0.887695,0.045898,-0.550781
1762435488796339,-192.682938,-47.743904,45.000000,0.881836,0.047852,-0.548340
1762435488806386,-90.731712,-73.353661,-6.036585,0.877441,0.048828,-0.545410
1762435488816433,-69.024391,-47.378052,-17.195122,0.869141,0.049316,-0.540527
1762435488826480,-77.134148,-19.756098,-18.292683,0.868164,0.050293,-0.538574
1762435488836527,41.768295,-22.012196,-67.682930,0.863281,0.050293,-0.535645
1762435488846574,64.817078,-14.939025,-87.012199,0.861816,0.052246,-0.532715
1762435488856620,70.975609,14.390244,-93.414635,0.857422,0.051758,-0.531250
1762435488866667,118.963417,12.012196,-115.182930,0.859863,0.050293,-0.531738
1762435488876714,185.548782,-10.426829,-144.756104,0.858887,0.048828,-0.531250
1762435488886761,171.280487,25.914635,-132.439026,0.855469,0.045410,-0.530273
1762435488896808,194.695129,5.914634,-135.304886,0.854004,0.042480,-0.532715
1762435488906855,181.951218,-33.841465,-134.207321,0.850586,0.040039,-0.532227
1762435488916902,166.402451,0.975610,-113.963417,0.849121,0.034668,-0.531250
1762435488926948,163.536591,2.500000,-90.914635,0.850586,0.028320,-0.534668
1762435488936995,87.804878,-35.243904,-46.341465,0.854004,0.023926,-0.536133
1762435488947042,26.402439,-3.353659,-2.012195,0.855957,0.019043,-0.536621
1762435488957089,61.219513,19.451220,10.548780,0.859863,0.013184,-0.539551
1762435488967136,-9.817074,-39.451221,51.951221,0.858398,0.007812,-0.542969
1762435488977183,-144.939026,-43.109756,126.280487,0.853027,0.004395,-0.543457
1762435488987229,-217.804886,-37.682926,167.256104,0.854492,0.003418,-0.544434
1762435488997277,-179.024399,-91.219513,148.292694,0.862793,0.002930,-0.546387
1762435489007323,-132.134155,-77.378052,152.743912,0.861816,-0.001465,-0.544922
1762435489017370,-210.304886,-34.939026,216.158539,0.861328,-0.002930,-0.545898
1762435489027417,-312.743896,-102.804878,247.317078,0.863281,0.002441,-0.545898
1762435489037463,-236.097565,-94.756104,209.512207,0.861328,0.006836,-0.538574
1762435489047510,-159.634155,18.231709,194.695129,0.864258,0.009277,-0.537598
1762435489057557,-192.987808,-69.451218,195.609756,0.872070,0.011230,-0.541016
1762435489067605,-214.756104,-70.548782,213.841461,0.865234,0.014648,-0.536621
1762435489077652,-203.048782,-4.634147,200.304886,0.867676,0.025391,-0.534668
1762435489087698,-52.134148,-72.195122,101.951225,0.867188,0.032715,-0.534180
1762435489097744,-120.487808,-49.390244,120.548782,0.862305,0.034180,-0.531738
1762435489107791,-146.585373,-47.621952,134.146347,0.869141,0.038574,-0.533691
1762435489117838,-69.695122,-92.317078,91.036591,0.868652,0.044434,-0.530762
1762435489127885,-28.109756,-16.097561,66.524391,0.868164,0.053223,-0.525391
1762435489137932,15.060976,-1.463415,24.512196,0.870605,0.060547,-0.525879
1762435489147979,59.390244,-17.439024,-5.731708,0.871094,0.062012,-0.521973
1762435489158025,60.060978,25.548780,-4.817073,0.874512,0.066406,-0.525391
1762435489168072,169.573181,-49.878052,-74.085365,0.872070,0.071777,-0.523926
1762435489178119,192.134155,10.365854,-89.024391,0.855469,0.074707,-0.520508
1762435489188166,83.109756,-43.170734,-80.426834,0.856934,0.081055,-0.520508
1762435489198213,120.853661,-85.548782,-117.926834,0.851562,0.081055,-0.514160
1762435489208260,164.817078,52.500000,-110.243904,0.856934,0.080566,-0.510254
1762435489218306,202.743912,63.780491,-119.451225,0.866211,0.082520,-0.511230
1762435489228353,202.926834,90.304878,-125.182930,0.868164,0.082520,-0.507812
1762435489238400,368.048798,168.475616,-177.134155,0.870605,0.082031,-0.508789
1762435489248447,255.975616,137.500000,-140.365860,0.866211,0.078125,-0.516113
1762435489258494,101.829269,40.243904,-88.231712,0.865234,0.074707,-0.523438
1762435489268541,170.914642,-20.914635,-122.743904,0.861816,0.075195,-0.525391
1762435489278587,159.024399,-2.500000,-131.097565,0.864746,0.077148,-0.529297
1762435489288635,50.121952,-73.475609,-113.231712,0.872559,0.074707,-0.534180
1762435489298682,68.414635,-92.073174,-113.597565,0.879883,0.069824,-0.532715
1762435489308728,123.902443,0.121951,-101.646347,0.882812,0.066895,-0.529297
1762435489318775,29.451220,39.390244,-52.195122,0.883301,0.064941,-0.528320
1762435489328822,30.365854,33.780487,-45.609756,0.876465,0.062500,-0.524902
1762435489338869,-11.402439,91.646347,-12.195122,0.867188,0.059570,-0.521973
1762435489348916,-99.512199,100.670731,34.573170,0.862305,0.055664,-0.524414
1762435489358962,-132.926834,37.804878,44.939026,0.859863,0.055176,-0.526367
1762435489369009,-112.865860,31.707317,28.597561,0.861328,0.057129,-0.526367
1762435489379056,-61.829269,64.146339,2.621951,0.865723,0.056641,-0.528320
1762435489389103,-20.365854,25.914635,-17.743902,0.871094,0.054688,-0.532227
1762435489399150,-24.146341,-9.085366,-14.573171,0.868652,0.053711,-0.531738
1762435489409196,-117.256104,61.463417,26.158537,0.867188,0.056641,-0.529785
1762435489419244,-63.658539,27.621952,-18.353659,0.873047,0.059082,-0.530762
1762435489429290,103.597565,46.707317,-76.402443,0.866211,0.054199,-0.526855
1762435489439337,-37.500000,115.792686,-2.804878,0.864258,0.052734,-0.529785
1762435489449384,-34.878048,14.512196,-19.024391,0.863281,0.053223,-0.530762
1762435489459431,82.621956,54.878052,-65.853661,0.850586,0.053223,-0.525879
1762435489469477,52.073174,90.853661,-60.975613,0.855469,0.054688,-0.530273
1762435489479525,1.219512,-12.317074,-61.280491,0.856934,0.049805,-0.533203
1762435489489572,103.109756,37.987804,-75.000000,0.858887,0.045410,-0.532715
1762435489499618,195.914642,52.682930,-101.280487,0.863770,0.046875,-0.536621
1762435489509666,39.085365,-2.682927,-66.524391,0.863770,0.045898,-0.539551
1762435489519712,75.121956,-3.719512,-77.743904,0.863281,0.041504,-0.540527
1762435489529758,154.756104,-5.731708,-90.487808,0.862793,0.036621,-0.543945
1762435489539806,-3.292683,-58.353661,-27.926830,0.860840,0.032715,-0.547852
1762435489549852,-12.378049,-92.256104,-23.048780,0.858398,0.030762,-0.546875
1762435489559899,62.500000,-62.073174,-42.621952,0.854980,0.028809,-0.544922
1762435489569948,-16.646341,-71.280487,-7.804878,0.855957,0.024414,-0.545898
1762435489579993,-36.707317,-85.121956,20.060976,0.854492,0.019043,-0.543945
1762435489590039,-21.768293,-32.987804,40.731709,0.853516,0.017578,-0.540039
1762435489600088,-39.329269,-9.085366,52.439026,0.854004,0.018066,-0.539062
1762435489610133,-41.097561,-12.439025,55.000000,0.854004,0.016113,-0.537598
1762435489620180,-38.536587,9.512196,71.036591,0.854492,0.013672,-0.537598
1762435489630228,-112.804878,10.243902,109.939026,0.856445,0.013184,-0.539551
1762435489640274,-115.975609,-21.280489,110.182930,0.857910,0.014160,-0.541016
1762435489650320,-59.634148,-32.378048,84.512199,0.856445,0.016113,-0.540527
1762435489660369,-104.146347,-31.707317,99.268295,0.854492,0.016602,-0.541016
1762435489670413,-145.853668,-66.097565,118.841469,0.853027,0.015625,-0.541992
1762435489680461,-149.939026,-82.926834,125.853661,0.853027,0.018066,-0.539551
1762435489690510,-150.182938,-43.292683,129.268295,0.854004,0.021484,-0.536133
1762435489700555,-140.060974,-8.902439,124.695122,0.858398,0.024414,-0.534668
1762435489710602,-87.073174,-15.304878,100.792686,0.864258,0.027832,-0.533203
1762435489720650,-32.865856,28.109756,89.207321,0.861816,0.029785,-0.530762
1762435489730695,-74.390244,50.243904,106.951225,0.859863,0.034180,-0.532227
1762435489740742,-129.512192,-30.426830,95.548782,0.860840,0.041016,-0.534668
1762435489750792,-62.073174,-36.463417,49.878052,0.861328,0.044434,-0.532227
1762435489760835,-2.256098,10.548780,29.695122,0.864258,0.044922,-0.536133
1762435489770883,30.060976,-98.536591,6.341464,0.867676,0.045898,-0.539062
1762435489780932,-46.768295,-91.524391,32.134148,0.859863,0.050781,-0.534668
1762435489790976,-20.121952,-38.475609,9.268293,0.861328,0.056641,-0.531250
1762435489801023,68.170731,-37.073174,-32.317074,0.858887,0.056152,-0.529297
1762435489811070,-60.548782,-33.658539,17.500000,0.865234,0.057129,-0.528809
1762435489821117,26.646341,-7.804878,-1.158537,0.865234,0.057129,-0.524902
1762435489831164,107.682930,67.439026,-20.426830,0.862305,0.059570,-0.523926
1762435489841210,92.926834,4.146341,-38.475609,0.861328,0.063965,-0.524902
1762435489851257,-64.817078,-5.426829,4.024390,0.853516,0.062988,-0.523438
1762435489861304,53.048782,22.560976,-26.829269,0.859375,0.061523,-0.525391
1762435489871351,73.963417,-22.439026,-35.487804,0.858887,0.062012,-0.528809
1762435489881398,-81.463417,-36.707317,7.012195,0.864258,0.065430,-0.527832
1762435489891445,85.975609,-8.170732,-60.304878,0.865234,0.065918,-0.525391
1762435489901491,124.390244,20.304878,-73.170731,0.866699,0.064941,-0.526855
1762435489911539,12.256098,-11.646341,-27.926830,0.865723,0.063477,-0.527832
1762435489921585,-58.963417,2.378049,7.621952,0.861816,0.062500,-0.524414
1762435489931632,61.890244,41.646343,-32.317074,0.861816,0.064941,-0.523438
1762435489941679,3.292683,25.548780,-23.231709,0.860352,0.063965,-0.523926
1762435489951725,-72.682930,27.865854,13.109756,0.861816,0.060547,-0.525391
1762435489961772,-42.682926,24.146341,12.560976,0.864746,0.060059,-0.526855
1762435489971820,-18.292683,17.500000,-1.951220,0.866699,0.061523,-0.527344
1762435489981866,-25.609756,23.963415,-8.109756,0.864258,0.061523,-0.527832
1762435489991913,-20.487804,0.304878,-14.878049,0.862305,0.060059,-0.528809
1762435490001961,-61.646343,-3.414634,6.341464,0.858398,0.058594,-0.527832
1762435490012007,-102.682930,3.780488,24.573172,0.858398,0.058594,-0.526367
1762435490022053,-20.609756,17.560976,-6.524390,0.856934,0.059570,-0.523926
1762435490032101,-25.426830,49.878052,-7.621952,0.857422,0.060547,-0.521973
1762435490042148,-25.853659,74.024391,-4.817073,0.859375,0.059570,-0.521484
1762435490052194,8.292683,94.878052,-12.378049,0.861328,0.058594,-0.521484
1762435490062242,63.597561,96.219513,-35.914635,0.862305,0.060059,-0.522461
1762435490072288,41.768295,93.780487,-38.780487,0.859863,0.060547,-0.524902
1762435490082334,62.012196,58.292683,-58.719513,0.859375,0.060059,-0.528320
1762435490092381,85.975609,27.378050,-75.792686,0.856934,0.059082,-0.530762
1762435490102428,63.597561,12.134147,-73.475609,0.858398,0.058105,-0.533203
1762435490112475,106.402443,-19.695122,-97.439026,0.859375,0.057617,-0.534668
1762435490122522,122.195122,-13.048780,-105.731712,0.859863,0.056641,-0.534180
1762435490132569,107.804878,1.768293,-96.524391,0.861328,0.054688,-0.534180
1762435490142615,105.975609,3.414634,-92.073174,0.863281,0.051758,-0.534668
1762435490152662,166.463425,19.146341,-102.256104,0.861816,0.048340,-0.533691
1762435490162709,106.829269,37.317074,-69.634148,0.859375,0.045410,-0.534668
1762435490172756,70.914635,-0.731707,-56.402439,0.859863,0.042480,-0.537109
1762435490182803,83.353661,-9.512196,-55.182930,0.856445,0.039062,-0.537598
1762435490192850,69.817078,-1.585366,-38.536587,0.857910,0.036133,-0.540039
1762435490202896,22.317074,-55.853661,-21.890244,0.857910,0.033203,-0.542480
1762435490212943,0.975610,-54.878052,-7.134147,0.856445,0.031250,-0.541504
1762435490222990,12.073171,-40.121952,-5.487805,0.858398,0.030273,-0.541016
1762435490233037,-0.914634,-50.731709,3.231707,0.857422,0.027344,-0.540039
1762435490243084,-6.829268,-28.597561,22.500000,0.854980,0.024902,-0.537598
1762435490253130,-29.695122,-5.670732,42.378048,0.853516,0.024902,-0.535645
1762435490263177,-26.524391,-1.280488,44.573174,0.850098,0.023926,-0.533203
1762435490273225,-13.719513,28.963415,50.304878,0.847656,0.023438,-0.531250
1762435490283271,-54.634148,30.975611,70.304878,0.849121,0.023438,-0.531738
1762435490293318,-51.951221,27.865854,75.060974,0.849121,0.022949,-0.531250
1762435490303365,-24.939026,37.987804,69.329269,0.850586,0.024414,-0.532227
1762435490313412,-35.609756,15.304878,63.414635,0.852539,0.027344,-0.533691
1762435490323458,-31.463415,9.024390,58.170734,0.851562,0.027344,-0.533691
1762435490333505,-18.353659,4.817073,56.341465,0.852539,0.028320,-0.535645
1762435490343552,-40.304878,-19.573172,60.914635,0.854004,0.030273,-0.536133
1762435490353599,-46.585365,-10.182927,61.829269,0.854004,0.032715,-0.535156
1762435490363646,-4.512195,6.524390,45.670734,0.856934,0.035156,-0.535156
1762435490373693,-33.292683,-8.170732,50.060978,0.859863,0.037109,-0.536133
1762435490383740,-19.329269,0.060976,44.146343,0.862793,0.039062,-0.536133
1762435490393786,55.487804,15.426829,18.048780,0.863281,0.041504,-0.537109
1762435490403833,34.146343,-7.804878,14.634147,0.862793,0.044434,-0.538086
1762435490413880,14.085366,-41.158539,9.695122,0.860840,0.045898,-0.538574
1762435490423927,10.731708,-45.182926,7.012195,0.858887,0.047852,-0.539551
1762435490433973,20.426830,-62.439026,-2.317073,0.859863,0.050293,-0.540527
1762435490444020,0.304878,-79.573174,-7.195122,0.861816,0.053223,-0.539062
1762435490454067,32.560978,-62.134148,-24.207317,0.863770,0.054688,-0.537109
1762435490464114,95.548782,-44.695122,-47.195122,0.865234,0.056641,-0.536621
1762435490474161,65.609756,-56.646343,-42.317074,0.864258,0.058105,-0.534668
1762435490484208,49.024391,-33.109756,-37.134148,0.860352,0.059082,-0.530762
1762435490494255,76.951218,-15.365854,-48.780487,0.858398,0.060059,-0.529297
1762435490504301,60.731709,-23.658537,-47.439026,0.856445,0.060547,-0.527344
1762435490514348,28.841465,-3.597561,-32.682926,0.855469,0.060547,-0.525391
1762435490524395,61.768295,15.304878,-41.890244,0.856445,0.060547,-0.523926
1762435490534442,70.243904,18.048780,-48.780487,0.856445,0.061035,-0.522949
1762435490544489,59.939026,29.939026,-46.585365,0.855469,0.060547,-0.521973
1762435490554535,67.439026,38.353661,-47.743904,0.854004,0.059570,-0.521973
1762435490564582,41.280487,32.560978,-36.829269,0.852051,0.058594,-0.521973
1762435490574629,1.097561,32.256100,-21.158537,0.851562,0.058105,-0.521973
1762435490584676,13.109756,44.146343,-23.170732,0.852539,0.057129,-0.521484
1762435490594723,10.792684,57.560978,-18.109756,0.854980,0.056152,-0.521973
1762435490604770,-20.975611,58.902439,-1.707317,0.858398,0.054688,-0.523438
1762435490614817,-22.195122,65.060974,5.365854,0.859863,0.053223,-0.524902
1762435490624863,-15.609756,67.682930,6.219512,0.860840,0.052734,-0.526855
1762435490634910,-62.256100,44.939026,19.024391,0.859863,0.052734,-0.529785
1762435490644957,-99.268295,24.085367,29.451220,0.859863,0.051758,-0.532227
1762435490655004,-90.121956,8.658537,26.158537,0.860840,0.050781,-0.534180
1762435490665051,-108.353661,-8.658537,30.792685,0.863281,0.050781,-0.536133
1762435490675097,-112.317078,-18.292683,30.365854,0.865723,0.050781,-0.537109
1762435490685144,-82.500000,-12.378049,19.085367,0.867676,0.050781,-0.537109
1762435490695191,-62.926830,-6.890244,11.524390,0.867676,0.050781,-0.537109
1762435490705238,-65.121956,-10.121951,10.975610,0.864746,0.050781,-0.536133
1762435490715285,-55.000000,-9.695122,5.731708,0.860840,0.050781,-0.535156
1762435490725332,-58.719513,-12.682927,0.731707,0.857910,0.051758,-0.534180
1762435490735378,-46.158539,-12.926829,-10.000000,0.856445,0.051758,-0.533203
1762435490745428,-9.695122,-4.146341,-24.390244,0.856934,0.051270,-0.532227
1762435490755472,12.743903,3.048780,-33.719513,0.858398,0.051758,-0.531738
1762435490765519,35.975609,10.243902,-45.609756,0.858398,0.052246,-0.530273
1762435490775566,68.231712,23.719513,-59.878052,0.857422,0.051758,-0.529785
1762435490785613,71.036591,21.768293,-64.329269,0.856445,0.051270,-0.530762
1762435490795659,69.451218,10.670732,-65.609756,0.854980,0.049316,-0.531250
1762435490805706,83.475609,10.670732,-67.134148,0.852539,0.047363,-0.531250
1762435490815753,68.414635,-1.707317,-62.987808,0.852051,0.046387,-0.532227
1762435490825800,65.182930,-12.500000,-64.085365,0.852051,0.044434,-0.532227
1762435490835847,78.902443,1.219512,-61.524391,0.852051,0.041504,-0.532715
1762435490845893,70.365852,-1.341463,-48.475613,0.854004,0.038574,-0.533691
1762435490855941,35.121952,-5.731708,-27.500000,0.853516,0.036133,-0.533691
1762435490865987,38.109756,8.475610,-19.085367,0.853027,0.033691,-0.533691
1762435490876034,31.890245,6.097561,-9.146341,0.852539,0.031250,-0.535156
1762435490886081,-26.524391,-9.085366,19.817074,0.852539,0.028320,-0.536621
1762435490896128,-42.987804,-14.390244,36.524391,0.853027,0.025879,-0.537109
1762435490906175,-38.414635,-11.951220,43.902439,0.854004,0.024414,-0.538574
1762435490916221,-72.500000,-29.451220,58.475613,0.855957,0.023926,-0.539551
1762435490926268,-86.829269,-34.390244,69.634148,0.856445,0.022461,-0.540039
1762435490936315,-74.512199,-24.085367,76.036591,0.856934,0.021484,-0.540039
1762435490946362,-109.512199,-36.707317,92.439026,0.856934,0.021973,-0.540527
1762435490956409,-133.597565,-41.463417,101.707321,0.856934,0.022949,-0.539062
1762435490966455,-85.060974,-27.012196,87.256096,0.855957,0.023926,-0.538086
1762435490976502,-88.780487,-22.134148,91.219513,0.854492,0.024902,-0.537109
1762435490986549,-138.109756,-35.853661,105.365860,0.854980,0.027344,-0.536621
1762435490996596,-77.195122,-34.085365,78.170731,0.854492,0.029785,-0.534180
1762435491006644,-32.804878,-6.585366,60.731709,0.853027,0.032227,-0.533203
1762435491016690,-71.280487,-19.329269,66.951218,0.854492,0.035156,-0.533203
1762435491026736,-44.085365,-26.768293,51.402439,0.854492,0.037109,-0.530762
1762435491036783,10.731708,14.024390,34.085365,0.853516,0.040039,-0.528809
1762435491046830,-1.524390,14.268293,32.012196,0.854980,0.042969,-0.529785
1762435491056877,-6.219512,-7.012195,23.536587,0.854980,0.045410,-0.528809
1762435491066924,44.329269,22.378050,5.914634,0.854004,0.047363,-0.527832
1762435491076971,54.268295,19.207317,-3.719512,0.854980,0.049805,-0.529297
1762435491087018,23.719513,-17.073172,-6.707317,0.855957,0.052246,-0.530273
1762435491097064,57.256100,-8.414635,-23.719513,0.856445,0.053711,-0.529297
1762435491107111,81.646347,8.109756,-33.231709,0.858887,0.055176,-0.530762
1762435491117159,35.304878,-19.817074,-26.524391,0.863281,0.056641,-0.532715
1762435491127205,117.317078,-32.317074,-61.768295,0.864746,0.057129,-0.531250
1762435491137251,85.853661,25.792683,-39.085365,0.862305,0.057129,-0.531250
1762435491147300,12.560976,-26.768293,-26.890245,0.867676,0.059082,-0.534180
1762435491157345,124.817078,-44.634148,-69.512199,0.859863,0.057129,-0.530273
1762435491167392,30.548780,38.292683,-17.865854,0.857422,0.057129,-0.530762
1762435491177440,-15.914635,-60.914635,-19.451220,0.861328,0.058594,-0.533203
1762435491187486,14.207317,-46.036587,-30.609756,0.854492,0.056641,-0.527832
1762435491197533,52.134148,49.817074,-27.195122,0.858887,0.057617,-0.527832
1762435491207581,8.109756,-17.926830,-24.024391,0.859863,0.056641,-0.528809
1762435491217626,7.743903,2.865854,-15.731708,0.857422,0.055176,-0.524414
1762435491227673,36.036587,69.756096,-15.426829,0.856934,0.056152,-0.523438
1762435491237722,19.024391,38.475609,-19.695122,0.856445,0.055664,-0.524414
1762435491247768,15.487805,40.365856,-12.743903,0.852051,0.054199,-0.522949
1762435491257813,-47.926830,58.902439,12.621951,0.854492,0.054688,-0.523926
1762435491267862,5.121951,48.780487,-7.500000,0.854004,0.053223,-0.524414
1762435491277907,-0.426829,63.841465,-2.073171,0.854980,0.053223,-0.525391
1762435491287954,-29.634148,30.243904,-0.731707,0.858887,0.054199,-0.526855
1762435491298003,-24.573172,55.182930,0.060976,0.855957,0.051758,-0.526367
1762435491308048,28.902439,65.853661,-12.621951,0.859863,0.051758,-0.530273
1762435491318094,-30.670732,8.658537,-4.329268,0.859375,0.052246,-0.530762
1762435491328143,-45.121952,50.731709,5.548780,0.858398,0.051270,-0.530273
1762435491338188,35.670734,46.341465,-22.682928,0.860352,0.050781,-0.533203
1762435491348235,-22.256098,3.109756,-8.902439,0.860840,0.049805,-0.534668
1762435491358284,-54.756100,20.060976,6.707317,0.859375,0.048828,-0.534668
1762435491368329,30.121952,20.792683,-23.170732,0.860352,0.048828,-0.537109
1762435491378376,0.000000,-17.621952,-22.804878,0.859863,0.048828,-0.538574
1762435491388422,-39.634148,-20.426830,-11.341464,0.859863,0.047852,-0.538574
1762435491398469,21.585367,-8.841464,-28.536587,0.859863,0.046387,-0.539551
1762435491408516,37.256100,-37.378048,-38.597561,0.861328,0.046387,-0.541016
1762435491418563,-6.707317,-40.304878,-23.658537,0.858398,0.045410,-0.538574
1762435491428610,-33.048782,-6.707317,-11.829268,0.860352,0.045410,-0.539551
1762435491438656,75.609756,-46.646343,-58.048782,0.862305,0.044434,-0.539062
1762435491448703,42.378048,-9.268293,-34.817074,0.856445,0.041504,-0.537109
1762435491458751,-13.902439,-12.621951,-10.487805,0.857910,0.041992,-0.538574
1762435491468797,31.280489,-55.975613,-36.890244,0.853027,0.041016,-0.536133
1762435491478844,40.792683,-3.292683,-32.865856,0.850098,0.040039,-0.533691
1762435491488892,22.804878,-11.402439,-23.292683,0.851074,0.038086,-0.535156
1762435491498937,12.560976,-37.195122,-15.853659,0.850586,0.035645,-0.533691
1762435491508985,30.609756,12.500000,-8.170732,0.849609,0.035645,-0.531250
1762435491519032,-0.365854,24.634148,1.585366,0.853027,0.036133,-0.532227
1762435491529078,33.719513,0.914634,-12.195122,0.854004,0.033203,-0.531738
1762435491539125,29.939026,34.268295,7.073171,0.852051,0.030762,-0.532715
1762435491549173,-36.707317,19.024391,37.804878,0.852539,0.030273,-0.534668
1762435491559218,-46.219513,-14.939025,37.012196,0.850586,0.030273,-0.535156
1762435491569265,-27.926830,-8.414635,29.817074,0.850586,0.030273,-0.535156
1762435491579313,-65.426834,-9.329268,49.207317,0.852051,0.028320,-0.537109
1762435491589359,-122.073174,-28.414635,79.146347,0.855957,0.026855,-0.538574
1762435491599406,-80.670731,-28.841465,72.439026,0.858398,0.027832,-0.538086
1762435491609454,-74.207321,0.670732,71.341469,0.858398,0.029297,-0.537109
1762435491619499,-83.780487,-12.926829,71.158539,0.858398,0.029785,-0.538574
1762435491629546,-115.792686,-37.439026,83.109756,0.855957,0.029785,-0.538086
1762435491639593,-121.890244,-22.256098,92.621956,0.854980,0.030762,-0.537109
1762435491649640,-116.036591,-28.780489,87.560974,0.855469,0.032715,-0.537598
1762435491659688,-109.268295,-55.975613,73.719513,0.856445,0.035645,-0.537109
1762435491669733,-92.439026,-34.329269,66.402443,0.856934,0.036621,-0.535156
1762435491679780,-70.365852,-12.804878,60.975613,0.859375,0.038086,-0.535156
1762435491689827,-45.243904,-35.121952,46.646343,0.859863,0.040039,-0.533691
1762435491699874,-49.878052,-15.365854,44.451221,0.856445,0.042969,-0.530762
1762435491709921,-12.500000,10.487805,27.378050,0.854004,0.045410,-0.529297
1762435491719968,-10.792684,-11.585366,19.085367,0.851074,0.046387,-0.529297
1762435491730014,-55.487804,-10.975610,32.621952,0.850586,0.048340,-0.527344
1762435491740061,-23.353659,13.048780,19.024391,0.853027,0.050781,-0.526367
1762435491750108,47.926830,22.804878,-12.134147,0.855957,0.052734,-0.526367
1762435491760155,45.304878,23.292683,-17.987804,0.858398,0.054688,-0.526367
1762435491770201,52.926830,28.902439,-25.000000,0.859375,0.055664,-0.526855
1762435491780249,90.487808,28.963415,-40.548782,0.858398,0.056641,-0.528320
1762435491790296,56.036587,3.536585,-37.378048,0.857910,0.058594,-0.529785
1762435491800342,24.878050,-14.756098,-36.890244,0.858887,0.059570,-0.530273
1762435491810389,70.914635,-11.219513,-58.841465,0.860840,0.060059,-0.531250
1762435491820436,136.158539,-19.268293,-80.121956,0.860840,0.059570,-0.532227
1762435491830483,13.170732,-27.317074,-37.012196,0.860840,0.060059,-0.532715
1762435491840529,26.951220,-35.243904,-49.268295,0.864258,0.061523,-0.531738
1762435491850576,125.548782,-0.487805,-82.865852,0.862793,0.060547,-0.529785
1762435491860623,57.439026,15.243903,-53.658539,0.865723,0.060059,-0.531250
1762435491870670,23.353659,-31.951220,-46.585365,0.865234,0.058594,-0.531250
1762435491880717,101.524391,7.073171,-65.182930,0.859863,0.057129,-0.528320
1762435491890764,66.890244,19.573172,-53.109756,0.857422,0.058105,-0.529785
1762435491900810,-18.780489,-40.243904,-37.743904,0.854980,0.056641,-0.528809
1762435491910857,52.317074,0.792683,-50.853661,0.852051,0.053711,-0.524902
1762435491920904,42.012196,36.524391,-35.731709,0.854980,0.053223,-0.525391
1762435491930951,-11.829268,8.597561,-19.817074,0.856445,0.052246,-0.524902
1762435491940998,46.768295,55.548782,-30.792685,0.854980,0.050293,-0.521484
1762435491951045,71.585365,94.695122,-31.463415,0.855469,0.049316,-0.522461
1762435491961092,-7.195122,59.207317,-4.329268,0.853027,0.046875,-0.524414
1762435491971138,-10.000000,56.890244,4.329268,0.850098,0.045410,-0.523926
1762435491981185,10.304878,64.329269,-2.134146,0.849121,0.045410,-0.524902
1762435491991232,-30.000000,47.012196,6.158537,0.850586,0.044434,-0.527344
1762435492001279,-35.000000,32.134148,10.243902,0.854004,0.042480,-0.529297
1762435492011326,-9.451220,43.841465,8.597561,0.858398,0.041504,-0.530273
1762435492021372,0.121951,55.914635,10.426829,0.860840,0.041016,-0.532227
1762435492031419,-9.451220,33.841465,9.756098,0.861328,0.041016,-0.534180
1762435492041466,-6.768293,24.573172,6.402439,0.858887,0.041016,-0.534668
1762435492051513,-31.219513,24.573172,16.768293,0.856934,0.040039,-0.537109
1762435492061560,-40.670734,-14.329268,17.865854,0.855957,0.039062,-0.539062
1762435492071606,-31.341465,-32.865856,10.548780,0.855957,0.040039,-0.539551
1762435492081653,-21.646341,-17.865854,5.304878,0.857422,0.040527,-0.539551
1762435492091700,4.634147,-30.609756,-8.292683,0.859863,0.040039,-0.541016
1762435492101747,45.609756,-44.024391,-21.402439,0.858887,0.039551,-0.540039
1762435492111794,-6.524390,-16.097561,1.463415,0.857910,0.041016,-0.539551
1762435492121840,2.256098,-31.280489,-12.012196,0.860352,0.042480,-0.539062
1762435492131887,80.548782,-32.987804,-44.329269,0.858398,0.041504,-0.537598
1762435492141934,56.829269,-5.426829,-27.317074,0.857422,0.041016,-0.538086
1762435492151981,15.975610,-39.146343,-16.158537,0.856445,0.040527,-0.538086
1762435492162028,67.195122,-42.317074,-37.804878,0.852051,0.041016,-0.535156
1762435492172075,74.268295,-11.036586,-37.926830,0.849121,0.041016,-0.533691
1762435492182121,9.939025,-28.475611,-17.865854,0.850098,0.040039,-0.534180
1762435492192168,55.609756,-29.329269,-26.036587,0.849121,0.037598,-0.531250
1762435492202215,50.121952,23.719513,-9.207317,0.849121,0.037109,-0.529785
1762435492212262,9.268293,19.085367,3.719512,0.852539,0.037598,-0.530273
1762435492222309,53.536587,17.256098,-9.939025,0.851562,0.035645,-0.528809
1762435492232356,52.560978,55.060978,5.000000,0.852051,0.034180,-0.529785
1762435492242402,-27.378050,24.207317,35.609756,0.852051,0.033691,-0.532715
1762435492252449,-30.060976,-2.560976,37.012196,0.850586,0.033203,-0.532715
1762435492262496,-12.317074,13.597561,33.719513,0.851074,0.034180,-0.533691
1762435492272543,-82.012199,-7.500000,55.304878,0.854004,0.033691,-0.536133
1762435492282589,-94.512199,-29.756098,65.426834,0.855957,0.032227,-0.537109
1762435492292636,-65.060974,-18.292683,63.597561,0.858887,0.033691,-0.537109
1762435492302683,-90.792686,-13.780488,70.243904,0.859863,0.035645,-0.537109
1762435492312730,-84.878052,-18.902439,64.146339,0.859375,0.036621,-0.537109
1762435492322778,-73.902443,-22.195122,59.756100,0.859375,0.038086,-0.537109
1762435492332824,-113.658539,-17.682928,73.658539,0.859375,0.039062,-0.536621
1762435492342871,-82.256096,-27.439026,59.207317,0.859863,0.040527,-0.536621
1762435492352918,-53.292683,-27.926830,43.353661,0.859863,0.043457,-0.536133
1762435492362966,-79.573174,-28.048780,41.890244,0.860840,0.046387,-0.535645
1762435492373011,-30.243904,-23.658537,19.573172,0.860352,0.046875,-0.534668
1762435492383058,-2.804878,-22.012196,7.865854,0.860352,0.049316,-0.534180
1762435492393105,-39.817074,-36.585365,10.975610,0.859863,0.052246,-0.533203
1762435492403152,-20.487804,-16.097561,-2.804878,0.858398,0.053711,-0.530762
1762435492413199,67.804878,-5.182927,-39.512196,0.858398,0.055664,-0.529785
1762435492423246,27.743902,-11.768293,-30.365854,0.855957,0.056152,-0.528809
1762435492433293,-2.560976,-4.024390,-20.548780,0.854980,0.056641,-0.527344
1762435492443339,69.756096,5.182927,-49.573174,0.854004,0.058105,-0.525879
1762435492453387,58.780491,15.609756,-52.804878,0.854004,0.059570,-0.524902
1762435492463433,47.987804,21.158537,-51.097561,0.854492,0.058594,-0.524902
1762435492473479,81.890244,30.487806,-58.597561,0.855469,0.057129,-0.524902
1762435492483528,76.890244,30.548780,-55.609756,0.856445,0.057129,-0.525391
1762435492493573,43.841465,31.402439,-47.012196,0.856445,0.056641,-0.525879
1762435492503620,81.158539,28.231709,-61.341465,0.857422,0.055664,-0.526855
1762435492513668,66.341461,18.658537,-53.902439,0.856445,0.053223,-0.528809
1762435492523714,9.207317,8.109756,-29.268293,0.856934,0.051758,-0.530273
1762435492533760,13.658537,1.341463,-27.621952,0.857910,0.050293,-0.530762
1762435492543809,0.304878,5.365854,-21.341463,0.859863,0.049316,-0.531250
1762435492553854,-2.256098,9.268293,-15.487805,0.861816,0.047363,-0.532227
1762435492563901,-11.646341,14.573171,-0.853659,0.861328,0.044922,-0.533203
1762435492573949,-46.524391,7.560976,17.500000,0.861328,0.044434,-0.533203
1762435492583994,-58.414635,1.890244,20.304878,0.859863,0.044434,-0.533203
1762435492594041,-46.707317,8.902439,17.073172,0.858887,0.043457,-0.533691
1762435492604090,-66.158539,-5.426829,24.817074,0.859375,0.042480,-0.535156
1762435492614135,-80.792686,-17.012196,31.463415,0.859375,0.041992,-0.535156
1762435492624181,-39.268295,-2.073171,19.024391,0.858887,0.041992,-0.533691
1762435492634231,-30.365854,-4.268293,10.182927,0.857910,0.043457,-0.533691
1762435492644275,-42.682926,-10.243902,9.756098,0.855957,0.043457,-0.532227
1762435492654322,-15.670732,10.731708,5.243903,0.853516,0.042480,-0.530273
1762435492664369,-7.682927,17.195122,4.024390,0.852051,0.043457,-0.529785
1762435492674416,-17.804878,15.670732,3.231707,0.850586,0.043945,-0.528320
1762435492684462,17.500000,37.073174,-10.365854,0.850098,0.044434,-0.526855
1762435492694509,45.853661,47.560978,-20.548780,0.850586,0.043945,-0.527832
1762435492704556,27.134148,34.695122,-15.853659,0.851562,0.043457,-0.528809
1762435492714603,46.890244,36.158539,-22.804878,0.851562,0.043457,-0.529297
1762435492724650,81.768295,35.853661,-38.170734,0.852051,0.043457,-0.530762
1762435492734697,69.451218,16.280489,-39.451221,0.852051,0.042969,-0.532715
1762435492744743,49.329269,3.292683,-33.109756,0.852051,0.041504,-0.533203
1762435492754790,71.707321,-2.134146,-38.414635,0.853027,0.040527,-0.534180
1762435492764838,62.073174,-4.634147,-31.951220,0.854004,0.039551,-0.535156
1762435492774883,34.268295,-3.902439,-18.719513,0.855957,0.038574,-0.536621
1762435492784931,49.024391,-7.317073,-20.060976,0.857422,0.037109,-0.536621
1762435492794978,44.207317,2.317073,-8.658537,0.857422,0.035156,-0.537598
1762435492805024,-9.756098,-11.158537,15.914635,0.857910,0.034180,-0.539062
1762435492815071,-11.768293,-30.304878,17.317074,0.857910,0.034180,-0.540039
1762435492825119,-6.768293,-25.853659,18.902439,0.856934,0.033203,-0.540039
1762435492835165,-49.207317,-37.500000,35.609756,0.858398,0.032227,-0.541504
1762435492845211,-62.804878,-60.670734,42.682926,0.858887,0.031250,-0.541016
1762435492855258,-52.500000,-39.878048,48.536587,0.858887,0.030762,-0.539551
1762435492865305,-58.475613,-34.878048,53.109756,0.858887,0.031738,-0.539062
1762435492875352,-61.341465,-40.914635,53.841465,0.856445,0.031738,-0.536621
1762435492885399,-65.060974,-15.365854,62.134148,0.854004,0.031738,-0.533691
1762435492895446,-82.560974,-5.670732,72.439026,0.853027,0.032715,-0.532227
1762435492905492,-84.024391,1.768293,76.402443,0.852539,0.033203,-0.530273
1762435492915539,-71.402443,23.109756,74.878052,0.852539,0.035156,-0.528809
1762435492925586,-65.000000,28.658537,69.695122,0.853027,0.036621,-0.527832
1762435492935633,-58.780491,33.658539,66.280487,0.852539,0.038086,-0.527832
1762435492945680,-67.926834,28.963415,67.621956,0.853516,0.039551,-0.528320
1762435492955727,-72.865852,24.756098,65.670731,0.854980,0.041992,-0.528809
1762435492965773,-56.524391,26.036587,56.951221,0.855957,0.043457,-0.528809
1762435492975820,-65.182930,23.109756,56.951221,0.857910,0.045898,-0.530273
1762435492985867,-81.463417,10.304878,55.670734,0.860352,0.048340,-0.531738
1762435492995914,-46.158539,10.853659,37.743904,0.861816,0.050781,-0.532227
1762435493005961,-18.109756,6.829268,21.097561,0.862305,0.052734,-0.533691
1762435493016008,-31.890245,-26.097561,15.670732,0.861328,0.054199,-0.534668
1762435493026054,-68.109756,-29.634148,21.036587,0.859863,0.056641,-0.535645
1762435493036101,6.829268,-35.365856,-12.743903,0.860840,0.059082,-0.535156
1762435493046148,-18.414635,-41.829269,-12.073171,0.859863,0.060059,-0.534180
1762435493056195,-31.768293,-50.670734,-14.817074,0.863770,0.062012,-0.534668
1762435493066241,34.817074,-45.975613,-42.682926,0.863770,0.062500,-0.532715
1762435493076289,51.524391,-10.670732,-46.463417,0.863770,0.063477,-0.531738
1762435493086335,40.487804,-27.073172,-48.963417,0.862305,0.063965,-0.531250
1762435493096382,21.951220,-30.975611,-47.500000,0.858887,0.063477,-0.528809
1762435493106429,54.451221,-2.256098,-53.963417,0.855957,0.062988,-0.527344
1762435493116476,14.634147,-10.792684,-42.256100,0.855957,0.062988,-0.527344
1762435493126522,20.182928,-14.512196,-45.060978,0.855469,0.062012,-0.524902
1762435493136570,41.768295,28.658537,-46.158539,0.855957,0.061035,-0.523438
1762435493146616,43.658539,26.036587,-46.829269,0.858887,0.060059,-0.524414
1762435493156663,36.280487,32.743904,-37.926830,0.856934,0.057617,-0.523926
1762435493166710,17.378050,49.634148,-22.987806,0.856934,0.056152,-0.523926
1762435493176757,8.536586,36.097561,-18.780489,0.854492,0.054199,-0.524902
1762435493186803,-21.341463,30.243904,-5.487805,0.852539,0.052734,-0.525391
1762435493196850,-39.207317,19.207317,2.804878,0.853516,0.052246,-0.526855
1762435493206897,-64.329269,24.329269,15.792684,0.855469,0.050293,-0.527344
1762435493216944,-28.292683,31.097561,11.768293,0.858887,0.048828,-0.528809
1762435493226991,-51.585365,28.048780,24.024391,0.859863,0.048340,-0.529785
1762435493237038,-65.731712,30.792685,31.463415,0.859375,0.047852,-0.530273
1762435493247084,-53.048782,27.987806,27.804878,0.856934,0.047363,-0.531250
1762435493257131,-71.524391,10.548780,31.829269,0.855957,0.047363,-0.533203
1762435493267178,-93.902443,-8.292683,36.463417,0.854492,0.046875,-0.533691
1762435493277225,-73.231712,-5.731708,28.414635,0.855957,0.047363,-0.534180
1762435493287271,-38.780487,-20.365854,9.939025,0.859375,0.048340,-0.535156
1762435493297318,-34.268295,-15.731708,5.121951,0.860352,0.048340,-0.534668
1762435493307365,13.963415,0.609756,-9.512196,0.860840,0.048340,-0.534668
1762435493317412,22.682928,-12.317074,-16.585365,0.858887,0.048828,-0.534668
1762435493327459,2.804878,-14.512196,-13.292684,0.855469,0.048828,-0.533691
1762435493337506,26.768293,-7.256098,-24.024391,0.853027,0.048828,-0.532715
1762435493347552,56.646343,-19.024391,-39.817074,0.852051,0.049316,-0.532715
1762435493357599,38.231709,-17.865854,-34.756100,0.851074,0.048828,-0.532227
1762435493367646,55.731709,-6.341464,-39.268295,0.852539,0.048340,-0.531738
1762435493377693,98.841469,-5.426829,-56.280491,0.854004,0.048340,-0.531250
1762435493387740,89.695122,4.451220,-52.439026,0.854492,0.047363,-0.530762
1762435493397786,98.109756,12.134147,-50.487804,0.854492,0.045410,-0.531250
1762435493407833,98.170731,0.365854,-46.890244,0.852539,0.043945,-0.531738
1762435493417880,64.695122,1.951220,-29.512196,0.850586,0.042480,-0.531738
1762435493427927,39.878048,-3.841464,-18.048780,0.851074,0.041504,-0.532227
1762435493437974,52.926830,-12.195122,-17.926830,0.851074,0.039062,-0.532715
1762435493448021,27.926830,-3.597561,1.097561,0.852051,0.037598,-0.533203
1762435493458068,-8.292683,-10.731708,20.609756,0.854492,0.036133,-0.533691
1762435493468114,2.195122,-6.524390,23.536587,0.854980,0.035156,-0.533691
1762435493478161,-1.097561,6.097561,32.134148,0.854980,0.034668,-0.533691
1762435493488209,-40.243904,2.134146,51.524391,0.854980,0.033691,-0.533691
1762435493498254,-55.975613,-1.890244,64.024391,0.854492,0.033203,-0.533691
1762435493508302,-67.804878,1.768293,73.231712,0.854980,0.034180,-0.533691
1762435493518349,-82.743904,0.426829,78.414635,0.856934,0.035156,-0.534180
1762435493528395,-68.292686,-5.304878,72.743904,0.857910,0.036133,-0.534668
1762435493538442,-62.134148,-6.097561,70.182930,0.858398,0.037598,-0.535156
1762435493548490,-69.329269,-13.719513,68.902443,0.857910,0.039551,-0.535156
1762435493558536,-65.548782,-20.000000,62.134148,0.856934,0.041504,-0.534180
1762435493568582,-48.414635,-21.646341,50.365856,0.856934,0.044434,-0.533203
1762435493578631,-46.890244,-16.036585,45.000000,0.856934,0.046387,-0.532227
1762435493588676,-28.597561,-5.609756,35.975609,0.857910,0.048828,-0.531250
1762435493598723,-3.536585,-0.060976,22.073172,0.858398,0.051270,-0.529785
1762435493608771,10.670732,10.243902,10.182927,0.857910,0.053711,-0.528809
1762435493618816,35.000000,20.304878,-4.634147,0.856934,0.055664,-0.527832
1762435493628863,42.560978,12.378049,-15.304878,0.855957,0.057617,-0.528320
1762435493638912,39.268295,5.731708,-21.890244,0.854980,0.059570,-0.527832
1762435493648957,52.621952,8.048780,-33.414635,0.855469,0.061035,-0.527832
1762435493659004,77.317078,1.158537,-50.853661,0.856934,0.062012,-0.528320
1762435493669053,82.317078,0.487805,-58.719513,0.857910,0.062988,-0.527832
1762435493679097,92.317078,9.817074,-63.536587,0.858398,0.062988,-0.527832
1762435493689144,93.780487,7.865854,-66.036591,0.859375,0.062988,-0.527832
1762435493699191,84.268295,8.292683,-64.268295,0.858887,0.062988,-0.527832
1762435493709238,80.304878,16.646341,-61.829269,0.858398,0.062012,-0.527832
1762435493719285,67.621956,11.524390,-56.829269,0.859375,0.060547,-0.528809
1762435493729331,58.841465,3.719512,-51.951221,0.858398,0.059082,-0.529297
1762435493739378,42.256100,6.646342,-42.926830,0.858398,0.058105,-0.529785
1762435493749425,26.158537,-0.060976,-36.341465,0.858398,0.056641,-0.530273
1762435493759472,9.817074,-3.109756,-27.256098,0.857910,0.054688,-0.530273
1762435493769519,-12.378049,-0.243902,-13.658537,0.858887,0.053223,-0.530273
1762435493779565,-20.853659,4.695122,-4.695122,0.859863,0.051758,-0.530273
1762435493789613,-35.792683,12.865854,6.829268,0.859863,0.050293,-0.530273
1762435493799660,-49.634148,19.817074,17.195122,0.859863,0.048828,-0.530273
1762435493809706,-49.024391,22.743902,22.195122,0.858398,0.047363,-0.529785
1762435493819753,-69.085365,23.780489,34.695122,0.855957,0.046387,-0.530273
1762435493829801,-101.463417,12.987805,45.060978,0.854980,0.046387,-0.530273
1762435493839846,-80.365852,10.731708,36.341465,0.854492,0.046387,-0.529785
1762435493849893,-88.475609,27.926830,42.195122,0.855469,0.046387,-0.530273
1762435493859941,-93.841469,8.109756,40.609756,0.859375,0.046387,-0.531738
1762435493869987,-66.524391,26.219513,34.268295,0.859375,0.046387,-0.530762
1762435493880033,-41.585365,39.512196,23.841463,0.861328,0.047852,-0.531738
1762435493890080,-32.378048,9.451220,11.219513,0.858398,0.048340,-0.532715
1762435493900127,-63.658539,11.341464,20.000000,0.855469,0.048340,-0.532715
1762435493910174,-20.000000,-1.158537,0.000000,0.854492,0.048828,-0.533691
1762435493920221,-32.500000,-18.597561,-4.329268,0.853516,0.049805,-0.533691
1762435493930268,-27.621952,-13.292684,-8.719512,0.855469,0.050293,-0.533203
1762435493940315,14.573171,-7.012195,-25.000000,0.858398,0.049805,-0.533691
1762435493950361,51.036587,-0.060976,-38.475609,0.860840,0.049805,-0.533691
1762435493960408,48.658539,4.268293,-37.682926,0.859863,0.049316,-0.533691
1762435493970455,53.597561,2.682927,-39.939026,0.859375,0.048828,-0.535156
1762435493980502,59.817074,-13.902439,-44.268295,0.856934,0.047852,-0.535645
1762435493990548,26.402439,-21.707317,-32.256100,0.855469,0.046875,-0.536621
1762435494000595,28.475611,-39.085365,-32.926830,0.855957,0.045410,-0.537598
1762435494010642,27.439026,-46.524391,-31.219513,0.857422,0.044434,-0.538086
1762435494020689,27.621952,-40.914635,-26.219513,0.858887,0.042969,-0.538086
1762435494030737,21.219513,-39.817074,-19.207317,0.859375,0.041504,-0.538086
1762435494040783,20.121952,-41.890244,-13.963415,0.858398,0.040039,-0.537109
1762435494050829,3.292683,-28.475611,0.670732,0.855469,0.038574,-0.535645
1762435494060876,-22.743902,-25.975611,16.219513,0.854980,0.037598,-0.534668
1762435494070923,-30.548780,-28.658537,24.146341,0.853516,0.036133,-0.533691
1762435494080970,-42.500000,-10.548780,37.560978,0.853516,0.035156,-0.532715
1762435494091016,-46.585365,-8.963415,43.841465,0.854492,0.035156,-0.532715
1762435494101064,-45.731709,-11.463415,45.243904,0.854004,0.035156,-0.531738
1762435494111110,-41.829269,1.646342,47.439026,0.853027,0.035156,-0.531250
1762435494121157,-54.512196,-5.243903,51.402439,0.852539,0.035645,-0.531250
1762435494131204,-58.353661,-10.731708,53.963417,0.851074,0.035645,-0.530273
1762435494141250,-63.475613,0.548781,58.719513,0.850586,0.036621,-0.529297
1762435494151297,-61.280491,2.195122,56.829269,0.852051,0.038086,-0.528809
1762435494161344,-45.487804,11.829268,52.500000,0.852539,0.039062,-0.527832
1762435494171391,-42.500000,25.731709,53.841465,0.854004,0.040527,-0.527832
1762435494181438,-37.500000,26.402439,51.036587,0.854980,0.041992,-0.528320
1762435494191485,-35.853661,28.292683,48.414635,0.855469,0.043457,-0.528809
1762435494201531,-27.500000,20.243902,40.365856,0.856445,0.045410,-0.529785
1762435494211578,-33.109756,5.304878,35.243904,0.856934,0.046875,-0.531738
1762435494221625,-15.426829,-5.487805,24.024391,0.857422,0.048340,-0.532715
1762435494231672,-18.109756,-20.548780,15.792684,0.859375,0.050781,-0.534180
1762435494241720,3.475610,-42.134148,-3.902439,0.860352,0.052734,-0.533691
1762435494251765,41.341465,-22.804878,-16.890244,0.858398,0.053223,-0.533203
1762435494261812,17.378050,-31.890245,-14.268293,0.860352,0.055664,-0.533203
1762435494271859,29.512196,-40.365856,-26.829269,0.858887,0.056641,-0.530762
1762435494281906,61.585369,9.024390,-34.085365,0.857910,0.057617,-0.528809
1762435494291953,75.000000,4.207317,-42.195122,0.859375,0.058594,-0.528809
1762435494301999,45.487804,-4.451220,-36.829269,0.857910,0.059082,-0.527344
1762435494312046,87.500000,29.146341,-48.048782,0.857422,0.059082,-0.526367
1762435494322093,105.975609,16.646341,-60.426830,0.856934,0.059570,-0.527832
1762435494332139,57.987804,-7.743903,-51.707317,0.855957,0.059570,-0.527832
1762435494342187,75.365852,6.219512,-57.256100,0.855469,0.059082,-0.526855
1762435494352234,98.231712,5.000000,-67.134148,0.856934,0.058594,-0.527832
1762435494362280,70.243904,-2.378049,-57.926830,0.856445,0.057617,-0.526855
1762435494372327,56.707317,13.048780,-48.963417,0.856445,0.056152,-0.525879
1762435494382374,92.804878,28.414635,-57.134148,0.855469,0.055176,-0.524902
1762435494392421,58.170734,39.146343,-39.695122,0.854004,0.053711,-0.524902
1762435494402468,16.768293,37.256100,-20.792683,0.854004,0.052246,-0.524902
1762435494412515,32.804878,47.012196,-20.548780,0.854004,0.050293,-0.524414
1762435494422561,26.463415,57.195122,-12.439025,0.854980,0.049316,-0.525879
1762435494432609,-6.585366,40.853661,-0.121951,0.856445,0.048340,-0.527832
1762435494442655,-8.597561,37.500000,2.987805,0.856934,0.046875,-0.528809
1762435494452702,4.268293,39.451221,1.341463,0.858398,0.045898,-0.530762
1762435494462749,-32.926830,15.182927,12.500000,0.858398,0.045410,-0.532715
1762435494472796,-50.914635,7.073171,20.182928,0.858398,0.044434,-0.532715
1762435494482842,-34.695122,13.719513,17.621952,0.859375,0.043945,-0.533203
1762435494492889,-52.621952,10.853659,25.914635,0.859863,0.043457,-0.534180
1762435494502936,-67.621956,5.975610,32.743904,0.859863,0.043457,-0.534180
1762435494512982,-28.658537,15.182927,21.097561,0.859375,0.043457,-0.533691
1762435494523030,-42.865856,16.585365,24.390244,0.858398,0.043945,-0.534668
1762435494533076,-60.731709,-2.134146,24.268293,0.858887,0.044434,-0.535156
1762435494543123,-22.378050,-2.560976,7.378049,0.858398,0.044434,-0.534668
1762435494553171,8.170732,6.524390,-3.048780,0.858398,0.044434,-0.535156
1762435494563217,0.731707,-10.975610,-4.512195,0.857422,0.045410,-0.536133
1762435494573263,-5.670732,-21.097561,-8.353659,0.855957,0.046387,-0.535156
1762435494583312,8.475610,-4.573171,-16.829269,0.855469,0.046875,-0.534180
1762435494593357,36.402439,-13.780488,-31.463415,0.856934,0.046387,-0.534668
1762435494603404,56.463417,-19.451220,-37.682926,0.854980,0.045898,-0.534180
1762435494613453,32.195122,-7.378049,-27.256098,0.854492,0.046387,-0.533691
1762435494623497,46.585365,-22.743902,-40.731709,0.854492,0.047363,-0.533691
1762435494633544,80.121956,-14.512196,-53.414635,0.852051,0.045898,-0.532227
1762435494643594,57.682930,-3.841464,-39.634148,0.852539,0.044922,-0.533203
1762435494653638,36.280487,-24.146341,-30.609756,0.852051,0.043457,-0.533203
1762435494663685,53.414635,-9.085366,-31.524391,0.850586,0.042480,-0.532227
1762435494673731,54.878052,-2.560976,-29.207317,0.849609,0.041992,-0.532227
1762435494683778,4.512195,-19.878050,-10.975610,0.848633,0.040527,-0.533203
1762435494693825,-17.560976,-27.500000,1.829268,0.849121,0.039062,-0.533203
1762435494703872,7.012195,-16.768293,-0.914634,0.851074,0.037598,-0.533203
1762435494713919,-6.951220,-19.085367,5.365854,0.853516,0.036621,-0.533691
1762435494723966,-12.439025,-23.963415,14.024390,0.852051,0.034180,-0.533203
1762435494734012,-20.792683,-8.353659,33.841465,0.848633,0.031250,-0.532715
1762435494744060,-106.158539,-17.195122,72.317078,0.845215,0.030762,-0.532715
1762435494754107,-140.304886,-30.060976,84.878052,0.844238,0.030762,-0.531250
1762435494764153,-84.390244,-3.719512,72.439026,0.845215,0.029785,-0.529785
1762435494774200,-113.170731,19.512196,93.475609,0.850098,0.028809,-0.530762
1762435494784246,-166.036591,5.060976,115.975609,0.856934,0.029297,-0.531250
1762435494794293,-117.987808,29.207317,103.048782,0.861328,0.031738,-0.530762
1762435494804341,-73.536591,60.060978,85.304878,0.865723,0.034180,-0.532715
1762435494814387,-102.987808,17.987804,82.073174,0.866211,0.035645,-0.536621
1762435494824437,-146.402435,-12.317074,93.231712,0.863281,0.036621,-0.537598
1762435494834482,-134.512192,-28.231709,80.365852,0.863770,0.040039,-0.540039
1762435494844527,-78.963417,-75.000000,42.439026,0.864258,0.042480,-0.540527
1762435494854574,-129.939026,-55.243904,56.341465,0.864258,0.044434,-0.540039
1762435494864621,-65.000000,-70.548782,26.951220,0.869629,0.046875,-0.539062
1762435494874668,-5.121951,-55.670734,3.292683,0.866211,0.048828,-0.535156
1762435494884715,-27.256098,-4.390244,11.707317,0.865234,0.052246,-0.532715
1762435494894761,23.658537,-22.987806,-18.475611,0.861816,0.054199,-0.530762
1762435494904808,34.695122,-0.731707,-26.829269,0.856934,0.056152,-0.527344
1762435494914855,58.963417,5.853659,-39.878048,0.854492,0.057617,-0.525879
1762435494924902,34.390244,0.487805,-39.146343,0.852051,0.059570,-0.526367
1762435494934948,69.390244,-17.195122,-66.158539,0.855469,0.062500,-0.524902
1762435494944995,130.853668,12.012196,-97.195122,0.855957,0.063965,-0.523438
1762435494955042,170.000000,25.792683,-115.426834,0.859863,0.064453,-0.524902
1762435494965089,182.621948,-6.463415,-127.073174,0.858398,0.063965,-0.525391
1762435494975136,151.951218,12.134147,-118.231712,0.855957,0.064453,-0.523926
1762435494985183,174.756104,19.390244,-129.634155,0.854980,0.063965,-0.524414
1762435494995230,155.243912,-0.182927,-126.707321,0.855957,0.062012,-0.525391
1762435495005276,136.402435,3.231707,-113.292686,0.857910,0.059570,-0.525879
1762435495015323,116.463417,21.463415,-98.048782,0.861328,0.056641,-0.526367
1762435495025370,147.012192,17.256098,-103.841469,0.864258,0.054688,-0.527344
1762435495035417,103.841469,22.439026,-85.609756,0.864746,0.052734,-0.528809
1762435495045463,83.292686,19.573172,-72.378052,0.864258,0.048828,-0.528809
1762435495055510,96.219513,26.951220,-61.158539,0.858398,0.043945,-0.528809
1762435495065557,4.634147,10.548780,-18.475611,0.855957,0.041992,-0.529785
1762435495075604,-69.878052,-11.158537,5.060976,0.854492,0.040527,-0.528809
1762435495085651,45.060978,35.914635,-22.500000,0.853516,0.037109,-0.526855
1762435495095697,39.146343,52.865856,-0.365854,0.853027,0.032715,-0.527344
1762435495105744,-165.548782,26.646341,82.560974,0.855957,0.031738,-0.528809
1762435495115791,-75.000000,53.414635,61.585369,0.857910,0.031738,-0.526367
1762435495125838,21.585367,113.780487,36.585365,0.859863,0.031250,-0.527344
1762435495135885,-131.524399,59.817074,82.560974,0.864258,0.031738,-0.533203
1762435495145931,-142.500000,20.670732,87.500000,0.860840,0.029785,-0.533691
1762435495155978,13.292684,66.829269,45.182926,0.857422,0.030762,-0.534180
1762435495166025,-95.914635,-8.109756,60.609756,0.854492,0.034180,-0.538574
1762435495176072,-174.573181,-78.170731,68.353661,0.851562,0.035156,-0.537109
1762435495186119,-50.121952,-2.804878,36.402439,0.852051,0.035156,-0.534668
1762435495196166,-7.560976,-2.195122,20.426830,0.860352,0.037598,-0.536621
1762435495206212,-49.573174,-19.024391,28.902439,0.860352,0.039551,-0.533203
1762435495216259,60.426830,58.353661,-8.475610,0.862305,0.042969,-0.530273
1762435495226306,155.914642,68.292686,-52.317074,0.860352,0.044434,-0.531738
1762435495236353,20.548780,27.682928,-13.658537,0.855957,0.043457,-0.533203
1762435495246400,56.036587,-7.865854,-30.670732,0.854492,0.044434,-0.534668
1762435495256446,153.170731,-5.365854,-72.804878,0.850098,0.046387,-0.535156
1762435495266493,73.231712,-25.975611,-58.536587,0.850586,0.047852,-0.537598
1762435495276540,38.414635,-77.500000,-63.292683,0.855957,0.047852,-0.538086
1762435495286587,179.695129,-46.890244,-106.768295,0.858398,0.045898,-0.535645
1762435495296634,166.890244,6.036585,-86.463417,0.858398,0.044434,-0.535645
1762435495306680,78.719513,-41.890244,-63.719513,0.859375,0.045410,-0.535156
1762435495316727,142.378052,-13.902439,-82.317078,0.851562,0.042480,-0.529785
1762435495326774,134.695129,54.268295,-59.573174,0.850098,0.040039,-0.530273
1762435495336820,42.865856,-12.926829,-25.182928,0.850586,0.037109,-0.532715
1762435495346868,18.841463,-3.597561,-3.353659,0.849121,0.034180,-0.530273
1762435495356914,54.573174,51.402439,-2.560976,0.854980,0.034668,-0.532227
1762435495366961,10.975610,-2.865854,4.756098,0.859375,0.032227,-0.535645
1762435495377008,-14.146341,-9.268293,25.914635,0.858398,0.028320,-0.536133
1762435495387055,-35.182926,5.731708,47.134148,0.859375,0.028320,-0.538086
1762435495397102,-63.170734,-41.585365,52.073174,0.856445,0.027832,-0.539062
1762435495407149,-99.939026,-41.768295,69.695122,0.851074,0.026855,-0.537109
1762435495417196,-144.085373,-36.219513,90.914635,0.853027,0.027344,-0.537109
1762435495427242,-147.926834,-31.402439,102.926834,0.854004,0.025879,-0.535156
1762435495437290,-167.012192,3.719512,120.853661,0.858887,0.027832,-0.534180
1762435495447336,-98.170731,9.573171,92.987808,0.862793,0.031250,-0.532227
1762435495457383,-81.219513,49.756100,87.500000,0.859863,0.032227,-0.531738
1762435495467432,-113.414635,25.914635,90.792686,0.860840,0.035645,-0.534180
1762435495477476,-158.048782,-18.536587,92.195122,0.857422,0.038086,-0.534180
1762435495487523,-98.597565,-10.000000,61.951221,0.857422,0.041016,-0.535156
1762435495497572,-21.646341,-41.341465,21.585367,0.856445,0.043457,-0.536621
1762435495507617,-142.134155,-66.646339,49.573174,0.857422,0.046387,-0.536621
1762435495517663,-59.451221,-63.414635,12.256098,0.860352,0.049316,-0.533691
1762435495527712,21.036587,-15.609756,-17.743902,0.861816,0.051270,-0.531250
1762435495537757,-9.329268,13.536586,-9.207317,0.865723,0.054199,-0.530762
1762435495547804,4.390244,6.280488,-25.182928,0.866211,0.056152,-0.528320
1762435495557853,165.609756,42.256100,-83.353661,0.861328,0.056152,-0.525391
1762435495567897,134.817078,41.646343,-69.695122,0.851074,0.055664,-0.526855
1762435495577944,-96.829269,-23.841463,-2.195122,0.848633,0.057617,-0.530273
1762435495587991,35.914635,-58.475613,-68.414635,0.850098,0.060059,-0.527344
1762435495598038,134.085373,32.926830,-96.951225,0.852539,0.058105,-0.526367
1762435495608085,51.585365,-9.268293,-70.365852,0.865723,0.057129,-0.533203
1762435495618132,72.256096,-77.195122,-85.548782,0.865234,0.055664,-0.530762
1762435495628179,163.536591,47.743904,-99.390244,0.861328,0.055176,-0.527344
1762435495638225,124.695122,14.451220,-93.353661,0.858887,0.054199,-0.531250
1762435495648272,-13.719513,-73.841469,-53.963417,0.852051,0.049805,-0.529785
1762435495658319,14.878049,1.524390,-37.865856,0.849609,0.046875,-0.525879
1762435495668365,21.585367,35.670734,-27.439026,0.855469,0.044922,-0.528320
1762435495678412,-25.365854,-14.512196,-12.560976,0.860840,0.042480,-0.529297
1762435495688460,-18.292683,37.317074,1.890244,0.864258,0.039551,-0.527344
1762435495698506,17.804878,84.695122,7.134147,0.867676,0.036621,-0.530273
1762435495708553,-42.682926,23.292683,32.621952,0.863770,0.033203,-0.534180
1762435495718599,-145.487808,-14.390244,70.000000,0.858887,0.033203,-0.533691
1762435495728646,-154.024399,1.524390,73.841469,0.856934,0.032715,-0.533691
1762435495738693,-134.329269,-7.743903,68.902443,0.860352,0.030273,-0.537109
1762435495748740,-137.439026,-55.060978,78.902443,0.862793,0.027344,-0.536621
1762435495758787,-192.256104,-0.243902,118.231712,0.862305,0.027832,-0.534180
1762435495768833,-135.243912,30.670732,101.524391,0.865234,0.029785,-0.533691
1762435495778880,-100.731712,15.975610,80.914635,0.863770,0.031250,-0.531250
1762435495788927,-163.292694,48.841465,108.109756,0.863770,0.031738,-0.529785
1762435495798974,-150.182938,59.573174,107.317078,0.867676,0.032715,-0.532227
1762435495809021,-89.085365,49.512196,79.573174,0.873535,0.036133,-0.534180
1762435495819067,-70.914635,45.243904,58.658539,0.878906,0.039062,-0.534668
1762435495829114,-79.268295,52.926830,55.609756,0.882324,0.039551,-0.537598
1762435495839161,-70.365852,25.426830,50.670734,0.886719,0.040527,-0.542969
1762435495849208,-88.353661,-15.243903,48.048782,0.889648,0.043457,-0.544922
1762435495859255,-127.987808,-2.134146,52.865856,0.891602,0.046387,-0.545410
1762435495869302,-76.951218,-28.048780,21.402439,0.894531,0.047852,-0.547852
1762435495879348,-63.231709,-66.036591,8.292683,0.892578,0.048828,-0.548340
1762435495889395,-82.987808,-60.670734,10.487805,0.889160,0.051270,-0.545898
1762435495899442,12.926829,-48.963417,-35.914635,0.884277,0.054199,-0.541504
1762435495909489,47.134148,-29.390245,-64.573174,0.882324,0.058105,-0.539062
1762435495919536,7.560976,-28.902439,-69.573174,0.887207,0.060547,-0.536133
1762435495929583,77.012199,5.000000,-102.926834,0.897461,0.060547,-0.531738
1762435495939629,203.597565,89.024391,-145.670731,0.906738,0.062012,-0.528320
1762435495949676,186.707321,149.878052,-149.024399,0.915527,0.064453,-0.526855
1762435495959723,197.682938,173.109756,-167.256104,0.918945,0.064453,-0.526855
1762435495969770,114.146347,177.073181,-136.524399,0.901855,0.055176,-0.522949
1762435495979817,1025.121948,257.560974,-305.121948,0.888184,0.044922,-0.520996
1762435495989863,-114.146347,207.560974,-3.536585,0.898926,0.056152,-0.542969
1762435495999910,413.475616,155.487808,-283.719513,0.946777,0.048828,-0.554199
1762435496009957,639.451233,309.512207,-238.292694,0.964355,0.027832,-0.581543
1762435496020004,-969.390259,-132.865860,63.902439,0.991699,0.015137,-0.601074
1762435496030050,-17.926830,-141.951218,-122.560982,0.976562,0.023926,-0.582031
1762435496040098,741.646362,164.207321,-231.585373,0.937988,0.027344,-0.573242
1762435496050144,349.573181,117.256104,-307.682922,0.887207,0.029785,-0.558105
1762435496060191,1512.195190,144.695129,-597.987793,0.817871,0.015137,-0.528809
1762435496070238,497.865875,393.231720,-188.048782,0.784668,0.007812,-0.531738
1762435496080285,-870.426880,177.743912,204.085373,0.848633,0.007324,-0.545898
1762435496090331,47.073174,-23.048780,57.134148,0.899414,0.005859,-0.561035
1762435496100378,-1997.926880,29.512196,1091.402466,0.891602,-0.008301,-0.562012
1762435496110425,-1945.975708,60.000000,1214.268311,0.958984,0.026855,-0.562500
1762435496120472,-1157.682983,-79.695122,725.975647,1.005859,0.058594,-0.567871
1762435496130519,-1979.207397,-188.719513,963.902466,1.018555,0.086914,-0.576172
1762435496140565,-1295.365845,-351.890259,410.060974,1.199707,0.129883,-0.582520
1762435496150612,935.304871,-280.365875,-115.609756,1.098145,0.070312,-0.552246
1762435496160659,-697.682922,-181.341461,572.134155,1.153320,0.143066,-0.610352
1762435496170706,-1926.036621,-1825.548828,623.170776,1.135254,0.173828,-0.539551
1762435496180753,80.182930,784.756104,-57.134148,1.047363,0.135254,-0.422363
1762435496190800,1875.853760,857.012207,-560.060974,1.118164,0.174805,-0.590820
1762435496200847,-1803.231689,-1997.926880,460.670746,1.030273,0.094727,-0.553711
1762435496210893,-996.768311,-56.524391,376.829285,1.003418,0.090332,-0.487793
1762435496220940,-979.085388,-795.670776,29.573172,1.050781,0.125977,-0.513672
1762435496230987,1557.134155,-813.597595,-1662.012207,0.929688,0.142090,-0.403320
1762435496241034,-323.597565,237.195129,-264.329285,0.886719,0.135254,-0.349609
1762435496251080,261.341461,1027.439087,-507.682953,0.923828,0.124023,-0.328125
1762435496261128,1516.524414,605.426819,-1301.768311,0.874512,0.101074,-0.310059
1762435496271174,252.743912,664.878052,-454.939026,0.891602,0.065430,-0.320801
1762435496281221,696.219543,1175.731689,-200.548782,0.928711,-0.012207,-0.343262
1762435496291269,269.268311,577.256104,109.573174,0.921875,-0.058594,-0.423828
1762435496301314,-1997.926880,-179.451218,1997.987793,0.944824,-0.074219,-0.466309
1762435496311362,-1317.561035,-25.365854,897.621948,0.966309,-0.043945,-0.438477
1762435496321410,1428.963501,27.743902,-137.012192,0.958496,0.029297,-0.467285
1762435496331455,-1997.926880,-347.621948,569.268311,0.978516,0.066895,-0.455078
1762435496341502,718.231750,564.146362,-507.865875,1.041504,0.059570,-0.447754
1762435496351550,1969.939087,687.134155,-1433.841553,1.112793,0.034180,-0.527832
1762435496361595,-120.548782,-789.451233,62.317074,1.149902,-0.010742,-0.613770
1762435496371642,-1946.402466,-765.792725,1429.817139,1.143555,-0.087891,-0.610840
1762435496381691,1626.158569,-340.243896,-396.158539,1.191406,-0.101562,-0.682129
1762435496391735,715.792725,-1488.658569,172.134155,1.101562,-0.020020,-0.680176
1762435496401782,-1997.561035,-1440.792725,911.402466,1.076660,0.003906,-0.655762
1762435496411829,1571.219604,-932.195129,-1676.890259,1.080078,0.038574,-0.613770
1762435496421876,720.487793,-761.768311,-784.939026,1.083984,0.022949,-0.560059
1762435496431922,818.414673,-167.926834,-635.365845,1.047852,-0.004883,-0.484375
1762435496441969,973.597595,1114.695190,-372.317078,1.026855,-0.040039,-0.437988
1762435496452016,878.048828,778.292725,-228.658539,1.051270,-0.055176,-0.470703
1762435496462063,798.414673,191.280487,-124.146347,1.062012,-0.118164,-0.487305
1762435496472110,22.865854,178.719513,330.365875,1.084961,-0.084961,-0.533203
1762435496482157,-624.146362,-125.304878,488.048798,1.208984,-0.138184,-0.560547
1762435496492203,1459.939087,10.487805,-22.560976,1.184082,-0.148438,-0.612305
1762435496502251,-1997.926880,-56.524391,1997.987793,1.226562,-0.123535,-0.603027
1762435496512298,-597.500000,-401.097565,1061.097534,1.349121,-0.058105,-0.625488
1762435496522344,67.926834,-695.670776,570.975647,1.217285,-0.016602,-0.563477
1762435496532390,-1431.463501,-11.219513,1098.597534,1.220215,0.000488,-0.482422
1762435496542439,1076.707397,443.048798,140.426834,1.186523,0.048340,-0.400879
1762435496552484,128.719513,1283.780518,1120.670776,1.232910,0.102539,-0.342285
1762435496562531,1054.878052,1537.317139,233.475616,1.357422,0.167480,-0.372070
1762435496572578,1835.853760,879.329285,-480.060974,1.447266,0.159180,-0.413086
1762435496582625,1615.243896,728.048828,-1013.536621,1.414062,0.142090,-0.445312
1762435496592671,-1859.695190,977.804932,608.475647,1.473145,0.152832,-0.534180
1762435496602718,-132.804886,-251.158539,-206.890244,1.455566,0.133789,-0.544922
1762435496612765,1697.378052,432.621948,-1073.536621,1.379395,0.163086,-0.533691
1762435496622812,-1360.487793,85.121956,-128.353668,1.395020,0.180664,-0.565918
1762435496632859,743.658569,-120.609756,-1050.609741,1.315430,0.102539,-0.532227
1762435496642905,1052.378052,373.536591,-764.146362,1.240723,0.094238,-0.520996
1762435496652952,-1904.390259,919.268311,312.804871,1.236328,0.020020,-0.535156
1762435496662999,374.268311,572.743896,-112.926834,1.221191,-0.044434,-0.553711
1762435496673046,-707.439026,562.012207,294.024384,1.192383,-0.052246,-0.601562
1762435496683093,-801.524414,-43.902439,83.109756,1.164062,-0.083008,-0.633301
1762435496693140,976.036621,-351.646362,-193.231705,1.114258,-0.096191,-0.672363
1762435496703186,301.097565,-1257.378052,-149.268295,1.127441,-0.092285,-0.692383
1762435496713233,1053.963379,-1067.317139,-420.670746,1.132324,-0.037109,-0.674805
1762435496723280,-245.975616,-539.756104,-68.231712,1.123535,-0.069824,-0.648438
1762435496733327,1748.780518,-355.121948,-314.939026,1.158691,-0.059570,-0.663574
1762435496743374,-202.317078,-933.536621,195.000000,1.135254,-0.093750,-0.637207
1762435496753420,-17.317074,-112.743904,233.292694,1.134766,-0.070801,-0.626465
1762435496763467,-948.658569,-410.426849,298.414642,1.152344,-0.088867,-0.623535
1762435496773514,-1897.195190,-1014.451233,938.231750,1.184082,-0.046387,-0.643555
1762435496783561,-515.060974,-901.585388,160.243912,1.238770,-0.020996,-0.621582
1762435496793607,-317.560974,-642.195129,-121.097565,1.260254,0.001953,-0.583008
1762435496803654,118.292686,-581.463440,-367.256104,1.276367,0.022949,-0.543457
1762435496813701,79.512199,-366.768311,-376.585388,1.262207,0.030273,-0.484375
1762435496823748,330.609772,-52.743904,-431.951233,1.248047,0.032715,-0.429688
1762435496833795,72.378052,162.682938,-227.621964,1.220703,0.032227,-0.378906
1762435496843841,202.256104,418.719513,-202.134155,1.191406,0.029785,-0.332031
1762435496853888,169.695129,1001.402466,-104.390244,1.185547,0.027832,-0.307129
1762435496863936,240.914642,865.975647,-73.597565,1.201172,0.025879,-0.308105
1762435496873982,1017.378052,938.292725,-203.109756,1.217773,0.016602,-0.326172
1762435496884029,624.756104,864.756104,-209.512207,1.223145,0.005859,-0.364258
1762435496894075,-1172.987793,492.804901,275.304871,1.214844,-0.008301,-0.414551
1762435496904122,-727.743896,139.939026,255.731720,1.223633,-0.001953,-0.433594
1762435496914169,1280.975586,85.182930,-372.865875,1.221191,0.029297,-0.450195
1762435496924216,404.451233,-24.451220,-360.609772,1.188477,0.020020,-0.467285
1762435496934262,779.329285,-268.963409,-389.207336,1.186035,-0.005371,-0.487305
1762435496944309,-204.695129,-257.012207,21.280489,1.182129,-0.017090,-0.482910
1762435496954356,-48.231709,-118.597565,-24.695122,1.181152,-0.027344,-0.485352
1762435496964403,461.524414,-2.926829,-238.719513,1.112793,-0.045410,-0.441406
1762435496974450,-336.890259,773.658569,167.134155,1.083984,-0.057129,-0.428711
1762435496984496,1667.012207,422.926849,-296.097565,1.056152,-0.064941,-0.460449
1762435496994543,-1103.231689,-7.378049,471.219513,1.015137,-0.096191,-0.448242
1762435497004590,-47.500000,879.512207,300.487823,1.002930,-0.094727,-0.466797
1762435497014637,-1659.329346,-277.378052,500.182953,0.996582,-0.084961,-0.480957
1762435497024684,-16.829269,86.097565,182.926834,0.968262,-0.090332,-0.448242
1762435497034731,286.890259,400.060974,70.304878,0.996094,-0.062012,-0.473145
1762435497044777,334.817078,-122.195122,-29.451220,0.992676,-0.084961,-0.486328
1762435497054824,-211.219513,69.329269,269.268311,1.012207,-0.079590,-0.500977
1762435497064872,-964.817078,-150.670731,353.292694,1.066895,-0.081055,-0.523438
1762435497074918,615.731750,-90.548782,13.109756,1.061035,-0.087402,-0.524902
1762435497084965,-120.548782,26.524391,302.560974,1.053223,-0.065430,-0.544922
1762435497095012,-859.939026,-517.378052,237.500000,1.036133,-0.062012,-0.550293
1762435497105058,353.292694,-556.036621,-97.500000,1.006348,-0.042969,-0.534180
1762435497115106,-233.780487,-249.756104,43.353661,1.018555,-0.025391,-0.530273
1762435497125152,1146.829346,-309.207336,-332.560974,1.016602,-0.030762,-0.517578
1762435497135199,289.573181,-90.304878,-10.853659,0.995605,-0.040039,-0.505371
1762435497145247,-899.573181,87.012199,496.707336,1.023438,-0.021973,-0.525879
1762435497155292,-1288.231689,-886.463440,567.256104,1.034180,-0.012695,-0.505859
1762435497165339,388.414642,-188.963425,-83.658539,1.006836,0.022949,-0.473633
1762435497175387,241.646347,115.792686,-119.146347,0.943359,0.038574,-0.447754
1762435497185433,1247.195190,160.548782,-294.878052,0.886719,0.034180,-0.463867
1762435497195479,178.353668,-715.487793,-130.365860,0.824219,0.038086,-0.487305
1762435497205529,-1404.085449,-943.719543,141.341461,0.788574,0.034668,-0.481445
1762435497215573,-396.646362,-779.634155,-160.060974,0.790527,0.052734,-0.468750
1762435497225620,-811.707336,-760.426819,-330.121948,0.787109,0.081543,-0.438965
1762435497235669,793.414673,-398.414642,-1124.756104,0.802246,0.097168,-0.415039
1762435497245713,517.500000,-263.536591,-949.451233,0.867188,0.079102,-0.377441
1762435497255760,963.719543,400.365875,-848.719543,0.843750,0.071777,-0.348633
1762435497265810,-503.170746,1389.451294,-20.243902,0.900391,0.045410,-0.337402
1762435497275854,1512.256104,1371.097534,-1164.878052,1.041992,0.008301,-0.374512
1762435497285901,1907.804932,1390.670776,-1333.231689,1.125000,-0.084473,-0.442383
1762435497295947,-1223.780518,669.451233,423.841461,1.192871,-0.154785,-0.538574
1762435497305994,-1990.975708,302.804871,1976.768311,1.213379,-0.129395,-0.602051
1762435497316041,504.634155,-365.243896,119.756104,1.243652,-0.070801,-0.591797
1762435497326088,-579.878052,979.207336,629.878052,1.208496,-0.004395,-0.596680
1762435497336135,-675.670776,-50.426830,267.378052,1.297363,0.043945,-0.666992
1762435497346181,-216.951218,-1169.512207,-217.621964,1.180176,0.051270,-0.617676
1762435497356228,-668.536621,77.439026,-186.036591,1.223145,0.085938,-0.596191
1762435497366276,1997.987793,-384.573181,-1685.426880,1.198730,0.117188,-0.591309
1762435497376321,131.951218,-340.121948,-534.695129,1.200684,0.145508,-0.591797
1762435497386368,268.597565,-438.048798,-916.463440,1.234863,0.108887,-0.577148
1762435497396416,1646.524414,-36.280487,-1206.158569,1.169434,0.112793,-0.550781
1762435497406462,-26.036587,137.987808,-216.219513,1.140137,0.062500,-0.546387
1762435497416509,43.536587,-194.085373,-324.451233,1.155762,0.047363,-0.536621
1762435497426556,1802.987793,203.414642,-645.975647,1.074707,0.001953,-0.503906
1762435497436602,-922.865906,400.914642,324.756104,1.040527,-0.025391,-0.518555
1762435497446649,-884.146362,-63.353661,387.439026,1.060059,-0.051270,-0.517578
1762435497456696,-657.682922,203.902451,517.621948,1.008301,-0.059570,-0.490723
1762435497466743,-1174.207397,667.560974,1046.158569,1.018555,-0.037109,-0.496582
1762435497476790,-872.987854,38.902439,541.585388,1.040527,-0.014160,-0.483398
1762435497486836,1603.048828,1225.853638,-341.463409,1.003418,-0.002930,-0.450684
1762435497496883,1181.402466,1050.853638,-398.902435,1.050293,0.005859,-0.520020
1762435497506930,-1978.109863,-228.170731,243.231720,1.038574,-0.031250,-0.555664
1762435497516977,-501.341461,294.207336,166.402451,0.988770,-0.079590,-0.547852
1762435497527024,1343.292725,-73.597565,-93.536591,1.045410,-0.098633,-0.613281
1762435497537070,-180.182938,-1028.963379,216.951218,1.022461,-0.085449,-0.592773
1762435497547117,4.451220,86.280487,68.658539,1.014648,-0.038574,-0.574707
1762435497557164,242.256104,-171.036591,-259.451233,1.021484,-0.023926,-0.590820
1762435497567211,301.036591,-375.060974,-294.573181,1.013184,-0.070312,-0.583984
1762435497577258,1448.963501,17.195122,-321.158539,1.006836,-0.092773,-0.583496
1762435497587305,-499.756104,-85.121956,292.621948,1.010742,-0.079590,-0.605469
1762435497597351,-708.963440,-418.536591,185.365860,1.018555,-0.099121,-0.598145
1762435497607398,1173.536621,-145.121948,-117.378052,1.004883,-0.113281,-0.593750
1762435497617445,-996.585388,-185.000000,544.878052,0.995605,-0.113770,-0.600098
1762435497627493,-899.634155,-254.268295,501.341461,0.977051,-0.115723,-0.578613
1762435497637538,386.768311,-99.207321,27.317074,0.949219,-0.084961,-0.562500
1762435497647585,-682.987793,-116.463417,254.817078,0.925293,-0.064941,-0.552734
1762435497657632,53.414635,-50.609756,-82.926834,0.928223,-0.062012,-0.535645
1762435497667679,1550.487793,116.890244,-418.353668,0.900879,-0.053223,-0.533203
1762435497677726,-14.634147,42.560978,-18.902439,0.887695,-0.050293,-0.540527
1762435497687772,374.329285,-159.756104,-175.609756,0.893555,-0.065430,-0.544922
1762435497697819,799.878052,-168.841461,-202.743912,0.879883,-0.069336,-0.542969
1762435497707867,-398.292694,-29.817074,196.463425,0.893066,-0.079590,-0.539551
1762435497717913,312.073181,17.378050,4.939024,0.915527,-0.095703,-0.540527
1762435497727960,-127.012199,99.878052,223.841461,0.919434,-0.098633,-0.538086
1762435497738006,-1123.597534,325.792694,560.121948,0.946289,-0.113281,-0.543945
1762435497748053,-392.804901,180.000000,463.780487,0.978516,-0.103516,-0.563477
1762435497758100,-786.219543,-73.292686,522.195129,0.958496,-0.077637,-0.559570
