Timestamp (us),Gyroscope X (deg/s),Gyroscope Y (deg/s),Gyroscope Z (deg/s),Accelerometer X (g),Accelerometer Y (g),Accelerometer Z (g)
65793842,143.292679,-7.134147,-26.768293,0.999512,-0.060547,-0.108398
1762435482291829,107.500000,-3.841464,-24.146341,0.996582,-0.060547,-0.111816
1762435482301684,49.817074,21.829269,-26.707317,0.993652,-0.059570,-0.114258
1762435482311535,12.743903,19.634148,-25.304878,0.993164,-0.058105,-0.117188
1762435482321387,20.609756,19.451220,-20.121952,0.993652,-0.058105,-0.119141
1762435482331239,20.365854,39.695122,-16.829269,0.994141,-0.058105,-0.120117
1762435482341092,-13.841464,40.121952,-14.451220,0.994141,-0.057617,-0.119629
1762435482350945,-39.878048,35.975609,-11.646341,0.995117,-0.057129,-0.118652
1762435482360798,-46.524391,50.243904,-8.536586,0.997559,-0.057617,-0.117676
1762435482370651,-28.719513,48.231709,-2.378049,0.999023,-0.057617,-0.115234
1762435482380503,-6.036585,36.829269,4.939024,0.998047,-0.057129,-0.111816
1762435482390356,-14.329268,50.182926,5.548780,0.996582,-0.057617,-0.108887
1762435482400208,-53.780491,54.329269,5.548780,0.997070,-0.058105,-0.106934
1762435482410061,-67.378052,41.341465,9.634147,0.997559,-0.057129,-0.106445
1762435482419913,-33.109756,42.926830,13.170732,0.997559,-0.056641,-0.106934
1762435482429767,-25.670732,48.536587,10.426829,0.996582,-0.058105,-0.107422
1762435482439619,-40.487804,38.292683,10.121951,0.996094,-0.061035,-0.107910
1762435482449472,-37.439026,36.341465,11.036586,0.996094,-0.062012,-0.108887
1762435482459326,-25.487806,39.329269,7.865854,0.998047,-0.061035,-0.108887
1762435482469178,7.621952,22.804878,8.292683,1.000488,-0.061035,-0.106934
1762435482479030,49.451221,13.536586,13.597561,1.000488,-0.062012,-0.102539
1762435482488883,40.487804,19.878050,11.341464,0.999512,-0.062012,-0.097168
1762435482498736,17.073172,10.304878,8.109756,0.999023,-0.061523,-0.091309
1762435482508591,59.756100,0.365854,14.024390,0.999512,-0.062012,-0.086426
1762435482518442,127.012199,8.292683,17.500000,1.000977,-0.062012,-0.083984
1762435482528294,123.963417,5.182927,20.487804,1.002441,-0.061523,-0.084473
1762435482538147,68.048782,-4.695122,18.292683,1.003418,-0.061035,-0.086426
1762435482547999,79.329269,-3.902439,19.329269,1.004395,-0.059570,-0.090332
1762435482557852,82.256096,0.060976,23.841463,1.004395,-0.058105,-0.095703
1762435482567705,37.012196,-10.182927,24.573172,1.001953,-0.056641,-0.099121
1762435482577557,22.256098,-3.231707,24.329269,0.999023,-0.056641,-0.101562
1762435482587409,1.768293,12.256098,24.146341,0.998047,-0.056152,-0.104004
1762435482597263,-48.414635,9.634147,22.439026,0.999512,-0.054688,-0.105957
1762435482607116,-50.487804,5.000000,26.219513,1.000488,-0.052246,-0.107422
1762435482616969,-30.487806,13.902439,27.743902,1.000488,-0.050781,-0.106934
1762435482626821,-78.170731,12.195122,25.731709,0.999512,-0.050293,-0.105469
1762435482636674,-117.378052,9.329268,27.865854,0.997070,-0.050293,-0.103516
1762435482646526,-125.060982,23.475611,29.207317,0.996094,-0.047852,-0.103027
1762435482656379,-142.560974,19.573172,25.731709,0.996094,-0.044922,-0.103516
1762435482666232,-142.500000,7.804878,23.780489,0.997559,-0.045898,-0.105469
1762435482676085,-135.487808,15.731708,23.719513,0.999023,-0.048828,-0.107422
1762435482685937,-143.841461,15.000000,18.109756,0.999512,-0.049316,-0.108887
1762435482695790,-142.378052,-0.853659,13.292684,0.999023,-0.048828,-0.109375
1762435482705643,-106.707321,3.109756,9.878049,0.997559,-0.049316,-0.108398
1762435482715497,-100.000000,5.853659,3.841464,0.996582,-0.050781,-0.105957
1762435482725349,-107.560982,-7.560976,-2.987805,0.996582,-0.052734,-0.102539
1762435482735201,-75.731712,-7.012195,-9.085366,0.998047,-0.054199,-0.099609
1762435482745054,-31.768293,-5.792683,-13.109756,0.999023,-0.053223,-0.096680
1762435482754906,8.231708,-24.451220,-17.560976,0.998535,-0.053711,-0.093750
1762435482764759,32.804878,-27.134148,-21.829269,0.997559,-0.055664,-0.090820
1762435482774612,42.682926,-20.609756,-29.024391,0.997070,-0.057129,-0.089355
1762435482784465,56.890244,-35.304878,-33.414635,0.998535,-0.058105,-0.089355
1762435482794317,106.646347,-42.743904,-35.060978,1.000488,-0.058594,-0.090332
1762435482804172,154.085373,-39.207317,-37.134148,1.001953,-0.059570,-0.091309
1762435482814023,148.536591,-49.085365,-39.695122,1.003418,-0.061035,-0.091309
1762435482823875,154.451218,-55.853661,-38.963417,1.002441,-0.061035,-0.091309
1762435482833728,161.219513,-48.475613,-37.134148,1.003418,-0.059570,-0.091309
1762435482843581,145.792679,-53.109756,-35.243904,1.003418,-0.057617,-0.091309
1762435482853434,130.487808,-62.012196,-28.780489,1.003418,-0.056152,-0.091309
1762435482863286,97.743904,-52.560978,-24.146341,1.002441,-0.054688,-0.091797
1762435482873140,50.487804,-48.170734,-22.621952,1.001465,-0.053223,-0.092773
1762435482882992,28.170732,-48.292683,-17.560976,1.001465,-0.053223,-0.095703
1762435482892845,28.109756,-36.890244,-11.829268,1.002441,-0.053223,-0.099609
1762435482902698,-9.085366,-28.292683,-11.097561,1.003418,-0.052734,-0.104004
1762435482912550,-24.756098,-33.170731,-6.402439,1.003418,-0.052246,-0.107910
1762435482922405,-32.926830,-23.902439,-3.231707,1.002441,-0.052734,-0.111328
1762435482932256,-69.207321,-13.475610,-2.865854,1.002441,-0.053223,-0.112793
1762435482942108,-73.963417,-13.414635,1.036585,1.000977,-0.053223,-0.113281
1762435482951961,-69.451218,-6.951220,5.731708,0.999023,-0.053223,-0.112305
1762435482961814,-92.804878,5.365854,3.719512,0.997070,-0.053223,-0.110840
1762435482971666,-121.036591,7.439024,4.268293,0.996582,-0.054688,-0.109863
1762435482981519,-112.682930,9.573171,6.829268,0.995605,-0.055664,-0.109863
1762435482991372,-95.975609,18.048780,5.000000,0.996094,-0.056641,-0.110840
1762435483001224,-78.780487,17.743902,2.804878,0.996582,-0.058594,-0.111328
1762435483011077,-47.378052,15.243903,3.475610,0.996582,-0.061523,-0.112305
1762435483020930,-40.243904,19.390244,0.853659,0.996582,-0.062988,-0.112793
1762435483030783,-18.658537,17.256098,-1.890244,0.997070,-0.063965,-0.112305
1762435483040635,20.487804,12.256098,-0.548781,0.997070,-0.063965,-0.110352
1762435483050489,30.365854,15.304878,-0.853659,0.996582,-0.064453,-0.106934
1762435483060342,10.548780,15.548780,-3.231707,0.995605,-0.063965,-0.103516
1762435483070194,15.853659,9.817074,-1.158537,0.995117,-0.063477,-0.100098
1762435483080046,43.231709,10.426829,1.646342,0.995605,-0.062500,-0.098145
1762435483089899,40.426830,9.146341,2.378049,0.996582,-0.062500,-0.097656
1762435483099752,41.280487,2.073171,5.182927,0.998535,-0.062500,-0.097656
1762435483109604,54.878052,-0.426829,8.963415,0.999512,-0.062012,-0.098145
1762435483119457,49.573174,0.304878,9.573171,1.000977,-0.061035,-0.099609
1762435483129312,43.170734,-4.634147,11.951220,1.002441,-0.061035,-0.100098
1762435483139164,48.658539,-6.829268,18.231709,1.001953,-0.060059,-0.100098
1762435483149015,28.902439,0.426829,18.353659,1.001465,-0.058594,-0.099609
1762435483158868,-2.134146,0.670732,19.695122,1.000488,-0.057617,-0.099121
1762435483168721,-6.219512,2.560976,24.268293,1.000000,-0.056641,-0.099609
1762435483178573,-21.524391,6.951220,26.890245,0.999023,-0.055176,-0.100586
1762435483188427,-44.634148,10.243902,24.817074,0.998535,-0.055176,-0.102539
1762435483198279,-40.792683,12.804878,26.463415,0.998535,-0.056152,-0.104980
1762435483208132,-37.012196,21.524391,26.341465,0.998535,-0.057129,-0.107910
1762435483217984,-40.426830,24.878050,23.658537,0.999023,-0.057129,-0.110840
1762435483227837,-34.512196,27.134148,21.219513,0.999512,-0.057617,-0.113281
1762435483237690,-25.914635,34.268295,18.597561,0.999512,-0.058594,-0.114746
1762435483247542,-25.487806,35.731709,16.097561,0.998535,-0.059082,-0.114746
1762435483257395,-16.402439,36.219513,14.146341,0.996094,-0.059082,-0.113770
1762435483267248,-9.512196,42.073174,9.329268,0.994141,-0.059570,-0.111328
1762435483277101,-10.060976,43.658539,5.060976,0.993652,-0.061035,-0.109863
1762435483286953,45.548782,45.670734,-0.060976,0.994629,-0.062988,-0.108398
1762435483296807,101.341469,54.878052,4.695122,0.997559,-0.063477,-0.108887
1762435483306659,46.951221,50.182926,-3.292683,1.000977,-0.061035,-0.109863
1762435483316512,47.926830,41.463417,-8.109756,1.005371,-0.059082,-0.109863
1762435483326364,122.682930,32.500000,3.475610,1.004883,-0.056641,-0.108887
1762435483336219,87.926834,24.207317,-0.182927,1.003418,-0.054199,-0.105469
1762435483346071,6.097561,19.390244,-4.085366,0.999512,-0.053711,-0.101562
1762435483355922,9.573171,31.707317,0.000000,0.998047,-0.052734,-0.097656
1762435483365775,18.780489,22.134148,1.524390,1.000000,-0.049805,-0.096191
1762435483375628,-6.524390,9.451220,-1.463415,0.999023,-0.047852,-0.096191
1762435483385481,26.646341,8.841464,-0.609756,1.000000,-0.048828,-0.097168
1762435483395334,24.024391,10.975610,-4.268293,1.002441,-0.051758,-0.099121
1762435483405186,-30.975611,-5.670732,-5.914634,1.003906,-0.051758,-0.100586
1762435483415039,18.841463,-10.000000,-4.756098,1.002441,-0.048340,-0.100586
1762435483424891,60.731709,-7.682927,-6.890244,1.000977,-0.047363,-0.099121
1762435483434744,14.878049,-12.256098,-14.207317,1.000488,-0.050781,-0.096680
1762435483444597,0.365854,-17.256098,-13.170732,0.999023,-0.052734,-0.093750
1762435483454449,33.658539,-10.731708,-14.268293,0.998535,-0.050293,-0.092773
1762435483464302,48.292683,-12.317074,-19.817074,0.999512,-0.048828,-0.092773
1762435483474155,65.792686,-26.768293,-17.378050,0.997559,-0.050781,-0.092285
1762435483484009,78.231712,-23.353659,-15.670732,0.995117,-0.052734,-0.092773
1762435483493861,21.707317,-8.109756,-25.121952,0.993652,-0.052734,-0.094727
1762435483503713,10.365854,-13.963415,-26.402439,0.996094,-0.052734,-0.098633
1762435483513567,70.426834,-26.402439,-17.743902,0.999023,-0.050781,-0.102539
1762435483523418,59.939026,-24.146341,-20.426830,0.999512,-0.050781,-0.104492
1762435483533271,10.853659,-20.487804,-23.536587,1.000000,-0.052734,-0.104004
1762435483543126,-1.646342,-22.500000,-15.609756,0.999512,-0.052246,-0.102051
1762435483552977,-15.182927,-23.658537,-12.195122,0.998047,-0.047852,-0.099121
1762435483562830,-38.536587,-21.463415,-13.658537,0.997559,-0.045410,-0.096680
1762435483572682,-35.853661,-24.024391,-5.426829,0.998535,-0.047363,-0.094238
1762435483582535,-62.317074,-23.780489,-0.182927,0.999512,-0.048828,-0.093750
1762435483592388,-106.951225,-21.890244,-2.743902,1.000000,-0.047363,-0.094238
1762435483602241,-83.597565,-23.231709,0.060976,1.001465,-0.046387,-0.096191
1762435483612093,-42.012196,-32.560978,1.463415,1.004395,-0.048828,-0.099121
1762435483621946,-67.621956,-26.829269,-1.524390,1.005859,-0.053711,-0.101074
1762435483631798,-62.256100,-31.341465,2.134146,1.004883,-0.055176,-0.100586
1762435483641651,7.439024,-32.621952,0.426829,1.000000,-0.054688,-0.099121
1762435483651504,1.585366,-23.170732,-8.292683,0.998047,-0.058105,-0.097656
1762435483661356,0.182927,-18.048780,-7.987805,0.996582,-0.062012,-0.095703
1762435483671209,46.524391,-29.756098,-0.853659,0.996094,-0.062012,-0.095215
1762435483681062,51.890244,-20.487804,-8.048780,0.995605,-0.060547,-0.095215
1762435483690915,58.658539,-17.743902,-9.817074,0.998535,-0.062500,-0.096191
1762435483700768,74.329269,-34.756100,2.804878,1.000488,-0.063965,-0.097168
1762435483710620,71.768295,-35.060978,4.634147,1.000488,-0.061035,-0.097168
1762435483720473,40.000000,-21.890244,0.670732,0.999023,-0.059082,-0.096680
1762435483730326,49.329269,-33.475609,10.914635,1.000000,-0.059570,-0.095703
1762435483740178,30.365854,-31.768293,17.987804,0.999512,-0.059570,-0.095215
1762435483750033,-29.329269,-16.341463,18.719513,0.996582,-0.056152,-0.095215
1762435483759885,-7.987805,-24.634148,23.719513,0.997559,-0.054688,-0.095703
1762435483769737,-30.121952,-13.597561,26.341465,1.000977,-0.056641,-0.100098
1762435483779589,-113.658539,-0.121951,28.353659,1.006836,-0.056641,-0.104004
1762435483789442,-72.012199,-20.182928,39.207317,1.005371,-0.050781,-0.106934
1762435483799295,-61.097561,-24.207317,39.268295,1.002930,-0.048828,-0.107910
1762435483809148,-143.475616,-0.548781,31.646341,1.001953,-0.054199,-0.107910
1762435483819000,-153.536591,2.804878,42.500000,1.001953,-0.057129,-0.107422
1762435483828853,-143.841461,-2.439024,49.207317,1.000488,-0.051270,-0.107422
1762435483838705,-124.817078,1.707317,37.195122,0.996582,-0.046875,-0.106445
1762435483848558,-98.963417,8.780488,31.951220,0.997070,-0.053711,-0.105957
1762435483858411,-116.219513,12.073171,38.536587,0.997070,-0.060547,-0.106445
1762435483868263,-103.780487,11.463415,33.048782,0.995117,-0.058105,-0.108887
1762435483878116,-57.621952,20.121952,22.804878,0.993652,-0.055176,-0.111328
1762435483887969,-13.353659,25.121952,16.341463,0.994141,-0.058105,-0.113281
1762435483897822,-25.670732,21.951220,14.756098,0.993652,-0.063477,-0.114746
1762435483907674,-5.853659,27.987806,9.695122,0.993652,-0.063477,-0.115234
1762435483917527,12.743903,43.414635,-3.475610,0.997070,-0.062012,-0.117188
1762435483927380,20.000000,27.621952,-1.402439,1.000488,-0.060059,-0.116699
1762435483937232,105.792686,10.670732,3.719512,0.999023,-0.058594,-0.112793
1762435483947085,92.743904,28.719513,-3.231707,0.996582,-0.059082,-0.106934
1762435483956938,19.634148,34.268295,-11.707317,0.994629,-0.058594,-0.101562
1762435483966792,24.329269,14.512196,-5.670732,0.996094,-0.055664,-0.098633
1762435483976643,93.414635,17.134148,-3.353659,0.997559,-0.051758,-0.098145
1762435483986496,90.243904,25.426830,-12.804878,1.003418,-0.053223,-0.099121
1762435483996349,55.670734,4.878049,-9.756098,1.005371,-0.056641,-0.100098
1762435484006201,100.914635,2.500000,-5.670732,1.004395,-0.055176,-0.102051
1762435484016056,63.902439,22.317074,-17.804878,1.003418,-0.051758,-0.104004
1762435484025907,49.756100,7.743903,-22.500000,1.004395,-0.051270,-0.105469
1762435484035760,97.804878,-4.756098,-13.841464,1.004395,-0.053711,-0.106445
1762435484045612,91.463417,13.658537,-19.695122,1.003906,-0.054199,-0.105469
1762435484055465,59.268295,16.158537,-30.304878,1.002441,-0.054688,-0.104492
1762435484065319,78.719513,-0.060976,-21.707317,0.999512,-0.052246,-0.102539
1762435484075170,135.304886,10.975610,-25.548780,0.995605,-0.051270,-0.101562
1762435484085023,58.414635,35.304878,-37.134148,0.997070,-0.055176,-0.102539
1762435484094877,52.439026,17.195122,-32.012196,0.998047,-0.056641,-0.104004
1762435484104728,112.804878,17.865854,-26.402439,0.999023,-0.054688,-0.108887
1762435484114581,68.292686,29.939026,-37.195122,1.000977,-0.052246,-0.111328
1762435484124434,89.207321,15.853659,-40.365856,1.002930,-0.055176,-0.112793
1762435484134287,75.853661,8.963415,-25.609756,1.002930,-0.057129,-0.112793
1762435484144139,55.975613,28.414635,-30.731709,0.999023,-0.051758,-0.110352
1762435484153992,19.756098,24.390244,-35.000000,0.998535,-0.050293,-0.107910
1762435484163845,44.634148,19.024391,-22.500000,0.998047,-0.052246,-0.104492
1762435484173699,36.036587,21.524391,-17.195122,0.999023,-0.052246,-0.102539
1762435484183551,-47.804878,24.939026,-21.036587,0.998047,-0.049316,-0.101562
1762435484193403,-16.219513,14.146341,-16.524391,1.000488,-0.048828,-0.101562
1762435484203256,-6.585366,12.256098,-5.304878,1.003418,-0.049805,-0.102539
1762435484213109,-51.219513,3.048780,-5.121951,1.002441,-0.048828,-0.102539
1762435484222961,-61.707317,-2.317073,-4.268293,1.001953,-0.048828,-0.101562
1762435484232814,-37.378048,2.987805,2.317073,1.000488,-0.050293,-0.099121
1762435484242667,-66.951218,-2.134146,3.536585,1.001465,-0.050293,-0.097656
1762435484252519,-79.085365,-11.951220,4.756098,1.000488,-0.049316,-0.095703
1762435484262372,-21.280489,-8.231708,10.304878,1.000488,-0.050293,-0.093750
1762435484272225,-34.695122,-10.060976,10.792684,1.001465,-0.051758,-0.092773
1762435484282077,-67.682930,-22.012196,8.597561,1.002441,-0.053223,-0.092285
1762435484291930,-44.573174,-21.463415,14.695123,1.001953,-0.052246,-0.091797
1762435484301783,0.243902,-26.829269,19.146341,0.998535,-0.049805,-0.090820
1762435484311635,-27.378050,-36.829269,16.768293,0.994141,-0.050781,-0.089844
1762435484321488,-38.658539,-32.804878,16.707317,0.991699,-0.053711,-0.088379
1762435484331342,-32.926830,-17.317074,16.036585,0.991211,-0.054688,-0.090332
1762435484341194,-39.085365,-31.219513,16.646341,0.992676,-0.052734,-0.093262
1762435484351046,19.146341,-34.390244,15.243903,0.994141,-0.053711,-0.096191
1762435484360899,8.658537,-19.268293,14.695123,0.994141,-0.056641,-0.098633
1762435484370752,-3.353659,-27.865854,16.097561,0.991699,-0.056641,-0.098633
1762435484380606,-8.048780,-30.853659,14.207317,0.991211,-0.055664,-0.100098
1762435484390458,-24.695122,-2.073171,9.268293,0.992676,-0.055664,-0.100586
1762435484400310,-17.804878,-14.939025,17.012196,0.996094,-0.054688,-0.101074
1762435484410163,-3.292683,-33.353661,23.231709,0.994141,-0.052246,-0.100098
1762435484420015,-23.902439,2.439024,14.573171,0.992188,-0.052734,-0.100098
1762435484429868,-101.524391,9.451220,17.317074,0.994141,-0.052734,-0.100586
1762435484439721,-55.426830,-33.292683,25.548780,0.997559,-0.052246,-0.101562
1762435484449573,-76.402443,3.841464,24.146341,1.002441,-0.050781,-0.104492
1762435484459426,-71.951218,-12.500000,25.426830,1.000000,-0.047363,-0.102051
1762435484469279,-38.658539,-26.158537,23.902439,0.999023,-0.051270,-0.101074
1762435484479131,-106.158539,-1.524390,24.756098,0.996094,-0.052734,-0.099121
1762435484488984,-85.304878,9.634147,16.219513,0.990723,-0.050781,-0.098633
1762435484498837,-88.536591,-21.036587,23.963415,0.994629,-0.050781,-0.101074
1762435484508690,-51.219513,17.804878,7.987805,0.997070,-0.053223,-0.103516
1762435484518543,-59.634148,6.585366,9.024390,1.004395,-0.056641,-0.107910
1762435484528395,-1.829268,-30.792685,15.121952,1.002930,-0.054199,-0.107422
1762435484538249,19.268293,3.841464,-0.304878,1.003906,-0.055664,-0.108398
1762435484548100,-59.085369,6.707317,-0.365854,1.003418,-0.055176,-0.104492
1762435484557953,36.280487,-32.378048,4.878049,1.002930,-0.054199,-0.100586
1762435484567806,3.048780,-9.329268,4.573171,1.003906,-0.054199,-0.097656
1762435484577659,7.987805,7.378049,-7.134147,1.007324,-0.053223,-0.091797
1762435484587514,12.439025,-31.524391,1.829268,1.012207,-0.055176,-0.092773
1762435484597365,35.792683,-13.353659,2.743902,1.014160,-0.052734,-0.091309
1762435484607217,55.487804,3.658537,-10.182927,1.019531,-0.054199,-0.094727
1762435484617069,13.780488,-36.036587,1.402439,1.019531,-0.055176,-0.095215
1762435484626921,110.426834,-29.146341,0.060976,1.018066,-0.054688,-0.096680
1762435484636775,7.439024,2.926829,-10.243902,1.020020,-0.054688,-0.100098
1762435484646629,-16.585365,1.158537,-15.914635,1.024902,-0.056152,-0.102051
1762435484656480,61.829269,-23.658537,2.317073,1.029297,-0.055664,-0.105957
1762435484666333,63.292683,-0.853659,-7.987805,1.029297,-0.052246,-0.105469
1762435484676186,-8.048780,18.536587,-20.731709,1.035156,-0.055664,-0.107910
1762435484686038,-37.804878,0.304878,-3.902439,1.041992,-0.057129,-0.106445
1762435484695891,93.658539,-0.121951,-5.914634,1.044922,-0.053711,-0.104492
1762435484705744,52.804878,11.280488,-12.804878,1.048340,-0.053223,-0.103027
1762435484715596,26.219513,52.134148,-24.939026,1.047852,-0.058105,-0.101074
1762435484725449,73.963417,56.036587,-20.365854,1.049805,-0.063477,-0.100586
1762435484735302,116.524391,20.609756,-34.451221,1.049316,-0.062500,-0.102539
1762435484745155,93.719513,84.268295,-70.060974,1.051758,-0.067383,-0.114746
1762435484755008,96.280487,131.585373,-61.097561,1.055176,-0.073242,-0.124512
1762435484764860,256.219513,50.365856,-73.963417,1.057129,-0.073242,-0.131348
1762435484774713,194.512207,87.317078,-116.402443,1.052246,-0.078125,-0.140137
1762435484784566,248.902451,143.719513,-122.012199,1.042480,-0.083496,-0.138672
1762435484794418,444.573181,85.365852,-116.890244,1.032227,-0.083984,-0.135742
1762435484804272,340.975616,110.304878,-127.500000,1.020996,-0.078125,-0.129883
1762435484814124,362.926849,128.048782,-165.121948,1.013672,-0.078613,-0.118652
1762435484823976,961.524414,84.146347,-135.548782,1.020508,-0.083984,-0.112305
1762435484833829,538.353699,70.731712,-135.000000,1.020996,-0.080078,-0.109375
1762435484843682,180.975616,74.451218,-169.939026,1.019043,-0.074707,-0.109863
1762435484853536,341.036591,62.865856,-116.097565,1.009277,-0.075195,-0.108887
1762435484863387,1035.061035,-37.682926,-71.890244,0.984375,-0.081543,-0.100586
1762435484873240,982.134155,-94.085365,19.268293,0.955078,-0.059570,-0.102539
1762435484883093,401.158539,148.658539,-83.170731,0.980469,-0.050781,-0.116699
1762435484892945,-1961.463501,68.231712,-134.390244,1.022949,-0.050293,-0.152344
1762435484902798,77.256096,-190.000000,115.792686,1.042969,-0.015137,-0.130859
1762435484912651,787.195129,49.634148,27.378050,1.070312,-0.024902,-0.137207
1762435484922503,-1239.512207,141.280487,-98.109756,1.053223,-0.058105,-0.103516
1762435484932356,56.341465,-93.536591,84.207321,1.019531,-0.069336,-0.096191
1762435484942209,38.597561,127.926834,75.548782,0.985352,-0.040527,-0.119629
1762435484952062,-942.560974,227.012207,-47.439026,0.969238,-0.027832,-0.117676
1762435484961914,161.524399,-261.097565,94.634148,0.958008,-0.060547,-0.121094
1762435484971767,1050.121948,-90.060974,123.719513,0.913086,-0.078613,-0.109863
1762435484981620,191.280487,279.146362,-35.975609,0.900391,-0.073242,-0.111816
1762435484991472,-47.682926,-99.329269,24.573172,0.910156,-0.068848,-0.119629
1762435485001325,1622.500000,-123.414635,178.292694,0.896484,-0.042969,-0.127441
1762435485011180,596.402466,200.548782,-11.951220,0.911621,-0.057129,-0.124512
1762435485021031,112.500000,33.231709,77.865852,0.947754,-0.084961,-0.114258
1762435485030883,178.231705,-36.097561,125.182930,0.954102,-0.041992,-0.123047
1762435485040736,208.841461,226.951218,2.134146,0.983398,-0.012695,-0.126953
1762435485050589,313.597565,-96.036591,91.280487,1.000488,-0.038574,-0.125488
1762435485060441,364.207336,-46.402439,165.914642,0.982422,-0.051758,-0.111816
1762435485070294,-220.670731,222.926834,32.621952,0.986328,-0.045410,-0.111328
1762435485080147,-58.536587,-54.512196,113.536591,0.988770,-0.033203,-0.092773
1762435485089999,1213.475586,-121.463417,241.707321,0.981934,-0.010742,-0.087402
1762435485099852,410.609772,118.902443,178.780487,0.992188,-0.009277,-0.076172
1762435485109705,-81.402443,-73.719513,178.780487,1.013184,-0.040527,-0.066895
1762435485119558,148.353668,-23.536587,286.097565,1.022949,-0.036133,-0.069336
1762435485129410,240.182938,172.621948,246.585373,1.053711,-0.003418,-0.086426
1762435485139263,-130.243912,-21.890244,210.060974,1.089355,-0.005859,-0.104004
1762435485149116,-45.609756,-36.951221,275.670746,1.117188,-0.027344,-0.118164
1762435485158968,43.780487,185.182938,233.841476,1.124023,-0.025391,-0.125488
1762435485168821,-252.256104,29.024391,234.268295,1.125000,-0.012695,-0.129883
1762435485178674,-186.036591,-34.878048,249.695129,1.109863,-0.000977,-0.125977
1762435485188527,-274.329285,83.536591,237.378052,1.079102,0.004883,-0.113281
1762435485198379,-791.463440,35.243904,213.231720,1.069824,-0.001465,-0.105469
1762435485208232,-1032.682983,-69.146339,175.914642,1.061035,-0.000977,-0.103027
1762435485218087,-808.658569,-67.012199,166.341461,1.061523,0.007324,-0.103516
1762435485227938,-234.817078,-48.292683,114.451225,1.084961,-0.001465,-0.109863
1762435485237790,-241.829269,-205.000000,110.365860,1.090332,-0.017578,-0.103027
1762435485247643,-50.853661,-172.378052,66.219513,1.090332,-0.032715,-0.097168
1762435485257495,-86.646347,-111.829269,16.463415,1.075195,-0.020508,-0.089355
1762435485267348,-3.231707,-178.109756,-1.280488,1.059570,-0.010742,-0.085449
1762435485277201,71.402443,-112.012199,-16.097561,1.036621,-0.010254,-0.082520
1762435485287053,-177.926834,-148.048782,-44.695122,1.016602,-0.008789,-0.077637
1762435485296906,-168.292694,-112.439026,-113.963417,1.000977,-0.016113,-0.092285
1762435485306759,-33.231709,30.670732,-111.646347,1.003418,-0.021484,-0.121582
1762435485316611,29.512196,8.963415,-177.500000,1.021973,-0.024414,-0.160156
1762435485326464,78.231712,-58.048782,-181.768295,1.018066,-0.038574,-0.183594
1762435485336317,725.182922,48.658539,-210.853668,0.998047,-0.043945,-0.199707
1762435485346170,93.109756,119.390244,-274.756104,0.971191,-0.043457,-0.203613
1762435485356022,114.390244,148.841461,-268.048798,0.957031,-0.038086,-0.217773
1762435485365875,-26.341465,210.548782,-327.439026,0.957031,-0.030762,-0.221680
1762435485375728,114.207321,195.365860,-372.378052,0.975586,-0.050293,-0.227539
1762435485385581,260.426849,268.048798,-372.804901,1.005859,-0.075195,-0.232910
1762435485395433,1095.365845,206.951218,-361.158539,1.022461,-0.065430,-0.227539
1762435485405286,878.597595,179.268295,-423.597565,1.036621,-0.046875,-0.215820
1762435485415138,1204.695190,142.682938,-420.182922,1.050293,-0.046387,-0.189453
1762435485424992,1658.780518,-75.731712,-304.390259,1.071777,-0.040527,-0.160645
1762435485434846,1320.182983,-177.378052,-257.926849,1.096680,-0.014648,-0.125977
1762435485444697,624.512207,-233.536591,-180.243912,1.119629,-0.002441,-0.098633
1762435485454550,-80.182930,-202.500000,-94.146347,1.118164,0.014160,-0.091309
1762435485464402,-627.865845,-124.634148,-115.304878,1.111816,0.029785,-0.111328
1762435485474255,-683.597595,-224.085373,-113.231712,1.119141,0.033691,-0.141113
1762435485484107,-354.085388,-354.024384,-112.256104,1.128418,0.007324,-0.169922
1762435485493960,-120.914635,-326.524384,-22.987806,1.127930,-0.029785,-0.176758
1762435485503814,96.951225,-192.317078,-15.487805,1.128906,-0.042969,-0.172363
1762435485513666,-342.500000,-186.341461,-44.024391,1.132324,-0.036621,-0.160645
1762435485523518,-169.207321,-241.219513,-63.109756,1.129395,-0.035645,-0.135742
1762435485533371,136.402435,-150.731705,-33.902439,1.114258,-0.058105,-0.111328
1762435485543224,-52.926830,-110.670731,-37.682926,1.079102,-0.074219,-0.086426
1762435485553076,-61.463417,-149.207321,-82.804878,1.014160,-0.085449,-0.070312
1762435485562929,400.000000,-37.073174,-66.829269,0.994141,-0.114746,-0.083984
1762435485572782,133.719513,-37.317074,-90.670731,0.998535,-0.147461,-0.114258
1762435485582634,992.439026,-2.378049,-27.195122,1.011719,-0.154297,-0.163086
1762435485592487,290.731720,0.000000,-117.134148,1.006348,-0.153809,-0.191406
1762435485602340,858.353699,-89.634148,-157.439026,0.994629,-0.157715,-0.209961
1762435485612192,609.146362,-52.073174,-153.353668,0.963867,-0.178711,-0.207520
1762435485622045,908.902466,98.475609,-128.048782,0.931641,-0.179688,-0.196289
1762435485631898,665.670776,140.365860,-156.768295,0.919434,-0.166992,-0.186035
1762435485641753,883.475647,134.390244,-102.865852,0.935059,-0.154297,-0.187012
1762435485651604,327.621948,187.439026,-116.524391,0.965332,-0.137207,-0.198242
1762435485661456,-102.195122,366.219513,-100.914635,0.989258,-0.119141,-0.219238
1762435485671309,-340.670746,376.524414,-91.646347,0.995605,-0.095215,-0.239746
1762435485681161,-735.731750,305.182922,-73.231712,0.987793,-0.094238,-0.258789
1762435485691014,-694.207336,418.414642,2.926829,0.981934,-0.112305,-0.289551
1762435485700868,-305.914642,647.073181,126.768295,0.976074,-0.120117,-0.305176
1762435485710719,-1366.951294,454.146362,162.012192,0.977051,-0.101562,-0.323730
1762435485720573,-1558.292725,213.658539,177.926834,0.994629,-0.108887,-0.326172
1762435485730425,-1475.609741,231.097565,326.768311,1.035645,-0.167969,-0.293457
1762435485740277,-1424.756104,139.573181,395.426849,1.084961,-0.206543,-0.246582
1762435485750130,-1717.926880,-50.000000,323.658539,1.104980,-0.211426,-0.196289
1762435485759984,-1445.000000,-165.426834,314.451233,1.091797,-0.194824,-0.141602
1762435485769836,-583.048767,-242.865860,343.353668,1.068848,-0.155762,-0.095215
1762435485779689,97.560974,-182.987808,357.926849,1.053223,-0.124512,-0.074707
1762435485789541,-44.512196,-169.573181,297.560974,1.057129,-0.128418,-0.080566
1762435485799394,-1190.121948,-212.073181,153.658539,1.062500,-0.150879,-0.104492
1762435485809246,336.585388,-114.512199,188.780487,1.083008,-0.173340,-0.155273
1762435485819099,343.109772,-116.280487,146.951218,1.094727,-0.168945,-0.194824
1762435485828952,1029.451294,-261.646362,109.268295,1.081055,-0.163574,-0.218750
1762435485838805,209.390244,-62.743904,37.378048,1.052734,-0.158691,-0.235840
1762435485848657,799.268311,4.268293,54.634148,1.040039,-0.128906,-0.231445
1762435485858511,328.048798,-145.304886,-14.512196,1.027832,-0.104492,-0.227051
1762435485868364,-7.926829,-29.146341,-52.682930,1.014648,-0.100586,-0.204590
1762435485878215,1082.012207,38.414635,-21.768293,1.026367,-0.105957,-0.178711
1762435485888068,450.670746,7.682927,-25.060976,1.013672,-0.092285,-0.165527
1762435485897921,42.256100,24.756098,-100.731712,1.007812,-0.081055,-0.149902
1762435485907773,1462.743896,86.890244,-85.304878,0.997559,-0.096191,-0.155273
1762435485917627,142.682938,164.695129,-129.146347,1.007812,-0.104980,-0.178711
1762435485927479,908.353699,43.475613,-99.207321,1.023926,-0.100586,-0.207520
1762435485937331,526.829285,53.292683,-132.621948,1.026367,-0.087402,-0.250000
1762435485947184,515.182922,92.926834,-177.682938,1.023438,-0.081055,-0.250488
1762435485957037,952.439026,-3.780488,-99.573174,1.010254,-0.067871,-0.250000
1762435485966890,-199.756104,-21.585367,-177.926834,0.986328,-0.033203,-0.224121
1762435485976742,-169.817078,39.695122,-209.390244,0.971680,-0.031250,-0.185547
1762435485986595,163.414642,29.268293,-48.048782,0.973633,-0.025391,-0.155762
1762435485996448,-670.304871,-14.207317,-139.390244,1.001465,-0.003906,-0.137207
1762435486006300,-1636.585449,-0.365854,-223.048782,1.047363,-0.009277,-0.135742
1762435486016153,-666.097595,-2.865854,-162.500000,1.080078,-0.014160,-0.134766
1762435486026006,417.012207,-138.536591,-10.609756,1.097656,-0.003418,-0.134766
1762435486035858,-100.121956,-183.414642,-125.731712,1.080566,0.000977,-0.122559
1762435486045711,-1196.219482,-100.060982,-214.085373,1.051758,-0.032715,-0.104492
1762435486055565,-737.682922,-91.463417,-195.975616,1.046875,-0.037109,-0.097656
1762435486065419,-462.804901,-167.500000,-258.780487,1.048828,-0.024414,-0.094727
1762435486075270,248.292694,40.914635,-272.134155,1.138672,-0.059570,-0.118652
1762435486085122,824.695129,-62.317074,-173.109756,1.140137,-0.067383,-0.106934
1762435486094975,393.780487,-144.817078,-293.414642,1.137207,-0.058105,-0.113770
1762435486104827,-154.207321,76.890244,-392.987823,1.098145,-0.080566,-0.121582
1762435486114680,1417.012207,1.524390,-177.195129,1.066406,-0.089355,-0.118652
1762435486124534,547.987793,-63.109756,-273.414642,1.033691,-0.083008,-0.132324
1762435486134385,-32.621952,93.841469,-372.500000,1.022461,-0.114258,-0.149902
1762435486144238,1997.987793,77.439026,-59.024391,1.046387,-0.116211,-0.179199
1762435486154091,251.280487,-212.378052,-179.878052,1.038574,-0.083496,-0.186035
1762435486163943,1213.719482,12.317074,-144.573181,1.034668,-0.062012,-0.192871
1762435486173796,767.195129,-66.585365,-37.012196,1.037598,-0.047363,-0.173340
1762435486183649,-458.658539,-164.085373,-41.158539,1.020508,-0.025391,-0.156738
1762435486193501,-1098.353638,190.609756,-80.975609,1.024902,-0.022461,-0.155762
1762435486203355,-529.390259,103.048782,73.109756,1.047852,-0.007324,-0.151855
1762435486213208,-1460.182983,-82.682930,-35.304878,1.079590,0.011230,-0.190430
1762435486223059,-849.878052,82.317078,25.060976,1.096191,-0.013184,-0.205566
1762435486232912,-399.512207,-88.231712,130.914642,1.096680,-0.044434,-0.203613
1762435486242765,-1381.890259,-63.292683,99.573174,1.062988,-0.062012,-0.199707
1762435486252617,-593.231750,114.390244,128.414642,1.027344,-0.057129,-0.188965
1762435486262470,-368.170746,34.878048,122.987808,1.019531,-0.052734,-0.183594
1762435486272323,-1182.073242,-115.914635,66.219513,1.013184,-0.073730,-0.180176
1762435486282178,-203.780487,69.817078,136.097565,1.005371,-0.091309,-0.174805
1762435486292029,-64.695122,43.597561,155.243912,0.997070,-0.077148,-0.170898
1762435486301881,-1150.487793,-66.951218,50.487804,0.979980,-0.065918,-0.167480
1762435486311734,-330.000000,100.487808,47.317074,0.983887,-0.087891,-0.173340
1762435486321586,-102.926834,124.756104,72.621956,1.009766,-0.103027,-0.181641
1762435486331439,-245.731720,-91.585365,47.621952,1.013184,-0.101074,-0.184570
1762435486341293,91.463417,65.426834,44.329269,0.995605,-0.091797,-0.184570
1762435486351144,81.402443,157.987808,-4.085366,0.986328,-0.089844,-0.171875
1762435486360998,-147.073181,-9.512196,-18.292683,0.991699,-0.110840,-0.163574
1762435486370850,-52.743904,43.597561,14.756098,0.993652,-0.108887,-0.152832
1762435486380703,304.390259,113.048782,5.853659,0.998047,-0.083984,-0.143555
1762435486390555,442.621948,-56.402439,41.219513,0.996094,-0.072266,-0.127930
1762435486400409,874.573181,-63.902439,81.646347,0.997070,-0.077637,-0.104980
1762435486410261,398.658539,28.597561,82.743904,1.013672,-0.073242,-0.088379
1762435486420113,-352.743896,-112.743904,43.048782,1.030273,-0.055176,-0.072754
1762435486429966,-247.804886,-200.853668,86.280487,1.037109,-0.043945,-0.059082
1762435486439819,367.500000,-65.731712,193.475616,1.044434,-0.029785,-0.052734
1762435486449671,55.914635,-185.975616,198.109756,1.052734,-0.020996,-0.052734
1762435486459524,-1135.670776,-257.134155,135.426834,1.054199,-0.031738,-0.055664
1762435486469377,-377.865875,-126.524391,174.573181,1.052246,-0.032227,-0.060547
1762435486479229,40.000000,-172.865860,216.524399,1.061523,-0.016602,-0.078613
1762435486489082,-869.573181,-293.414642,150.853668,1.063965,-0.009766,-0.091797
1762435486498937,-266.768311,-196.890244,156.036591,1.062500,-0.025879,-0.097168
1762435486508788,-76.524391,-125.365860,193.841461,1.067383,-0.034668,-0.104004
1762435486518640,-885.182922,-218.658539,133.963425,1.068359,-0.026855,-0.108887
1762435486528493,-316.951233,-153.414642,142.134155,1.062988,-0.019531,-0.117188
1762435486538346,-110.000000,-92.804878,155.243912,1.062012,-0.014648,-0.119141
1762435486548198,-818.536621,-178.353668,97.012199,1.053223,-0.024902,-0.121582
1762435486558051,-382.195129,-82.743904,132.317078,1.038086,-0.034180,-0.125977
1762435486567904,-56.890244,0.914634,150.365860,1.026367,-0.020996,-0.134766
1762435486577757,-1068.536621,-60.243904,60.975613,1.018066,-0.010742,-0.150879
1762435486587609,-321.036591,-19.939024,99.024391,1.012207,-0.015137,-0.169434
1762435486597462,-502.439026,46.707317,67.012199,1.011230,-0.022949,-0.187500
1762435486607315,-639.695129,29.634148,38.231709,1.011230,-0.038574,-0.198730
1762435486617167,-128.414642,55.609756,82.317078,1.006348,-0.046875,-0.212891
1762435486627020,-340.304901,90.975609,39.756100,0.993164,-0.038574,-0.210449
1762435486636872,-336.524384,20.914635,22.439026,0.979004,-0.040527,-0.200684
1762435486646726,-297.926849,119.878052,26.463415,0.968750,-0.050293,-0.185547
1762435486656578,-319.146362,154.329269,-5.060976,0.976562,-0.056641,-0.171387
1762435486666430,-380.914642,104.390244,-29.634148,0.986328,-0.059082,-0.165039
1762435486676283,74.695122,139.695129,-24.390244,0.991211,-0.058594,-0.159180
1762435486686136,256.219513,134.390244,-27.987806,0.992188,-0.059570,-0.156738
1762435486695989,-1.524390,101.829269,-83.658539,0.985840,-0.062988,-0.150879
1762435486705841,152.134155,128.353668,-95.731712,0.987305,-0.070312,-0.149902
1762435486715696,357.500000,100.670731,-81.768295,0.995605,-0.065430,-0.151367
1762435486725547,393.292694,32.073170,-121.280487,1.009766,-0.061035,-0.149414
1762435486735399,974.390259,6.036585,-106.402443,1.013672,-0.059082,-0.136719
1762435486745252,872.500000,-8.292683,-99.634148,1.011719,-0.050781,-0.117188
1762435486755105,662.621948,-76.707321,-111.402443,1.009277,-0.044922,-0.097656
1762435486764957,551.158569,-76.707321,-120.975616,1.005371,-0.047852,-0.078613
1762435486774810,698.475647,-72.926834,-88.597565,1.010254,-0.058105,-0.071289
1762435486784663,519.573181,-87.865852,-80.426834,1.020020,-0.061035,-0.076172
1762435486794516,163.902435,-117.865860,-113.231712,1.036133,-0.065918,-0.095215
1762435486804368,810.426819,-42.621952,-97.926834,1.029785,-0.074219,-0.116699
1762435486814221,400.548798,-23.719513,-116.524391,1.022461,-0.078613,-0.133789
1762435486824074,251.524399,-89.634148,-119.695122,1.018555,-0.086426,-0.156738
1762435486833927,361.280487,33.353661,-113.658539,1.013672,-0.086426,-0.185547
1762435486843779,200.000000,91.951225,-145.975616,1.000488,-0.078125,-0.195312
1762435486853632,253.597565,6.890244,-156.646347,0.985352,-0.078613,-0.202148
1762435486863484,62.073174,126.768295,-165.243912,0.966309,-0.088379,-0.209961
1762435486873337,287.804871,252.195129,-137.865860,0.956055,-0.087891,-0.208008
1762435486883191,36.707317,184.695129,-163.963425,0.965820,-0.083008,-0.217773
1762435486893043,-101.219513,239.573181,-147.926834,0.972168,-0.077148,-0.226074
1762435486902895,184.024399,305.060974,-125.243904,0.976074,-0.071777,-0.224609
1762435486912748,-350.000000,231.890244,-135.548782,0.982422,-0.075684,-0.221191
1762435486922603,-937.926880,289.024384,-75.914635,0.989258,-0.069824,-0.215820
1762435486932455,-730.182922,320.243896,-40.060978,1.006836,-0.056641,-0.207031
1762435486942306,-1037.317139,145.975616,0.975610,1.015625,-0.062500,-0.189941
1762435486952158,-992.195129,124.207321,82.134148,1.013672,-0.085449,-0.162598
1762435486962011,-888.048828,125.487808,93.414635,1.018066,-0.095703,-0.134766
1762435486971864,-969.451233,-67.926834,62.073174,1.019043,-0.104004,-0.104004
1762435486981717,-502.926849,-77.865852,93.536591,1.004883,-0.099121,-0.069824
1762435486991570,115.426834,-39.390244,107.012199,0.992676,-0.079102,-0.044922
1762435487001422,487.743927,-127.256104,121.036591,0.992676,-0.080078,-0.030762
1762435487011275,680.792725,-113.719513,133.902435,0.982422,-0.091309,-0.027344
1762435487021127,54.817074,-109.451225,57.560978,0.970215,-0.098145,-0.030273
1762435487030980,-84.146347,-94.329269,9.329268,0.985352,-0.112793,-0.059570
1762435487040833,854.878052,-77.073174,99.085365,1.010742,-0.106934,-0.097656
1762435487050685,740.731750,-178.353668,77.378052,1.013672,-0.085938,-0.119141
1762435487060538,184.268295,-182.560974,-0.670732,0.996094,-0.090332,-0.125000
1762435487070391,449.878052,-24.573172,50.609756,0.989258,-0.092773,-0.124512
1762435487080243,213.841461,-62.804878,56.280491,0.990723,-0.064453,-0.124512
1762435487090096,-13.963415,-97.012199,14.939025,0.985352,-0.041016,-0.122559
1762435487099949,116.707321,19.573172,78.841469,0.950684,-0.029297,-0.120605
1762435487109801,147.073181,16.890244,34.695122,0.927734,-0.037109,-0.111816
1762435487119654,-1223.414673,-89.512199,5.731708,0.958496,-0.054688,-0.134277
1762435487129507,-507.500000,-56.463417,15.487805,0.991699,-0.037598,-0.141113
1762435487139359,349.939026,-180.060974,88.780487,1.065918,-0.025391,-0.149414
1762435487149214,219.146347,-202.682938,64.451218,1.082031,-0.020508,-0.118652
1762435487159065,268.048798,-163.414642,94.634148,1.088867,-0.023926,-0.073242
1762435487168918,-197.560974,-216.707321,84.939026,1.060547,-0.000977,-0.030273
1762435487178770,-1087.317139,-289.329285,28.475611,1.053711,-0.006348,0.007324
1762435487188623,-378.536591,-284.329285,85.731712,1.035156,0.005371,0.028809
1762435487198476,283.353668,-147.865860,104.390244,1.042480,0.020020,0.008789
1762435487208329,-177.134155,-222.804886,116.036591,1.047363,0.032715,-0.031250
1762435487218181,-309.634155,-233.475616,6.097561,1.042480,0.020020,-0.076660
1762435487228034,-212.500000,-104.329269,26.097561,1.032715,-0.009766,-0.128906
1762435487237886,57.378052,-39.390244,56.219513,1.029297,-0.018555,-0.166992
1762435487247739,-84.695122,-155.304886,25.914635,1.017090,-0.020020,-0.201660
1762435487257592,-23.048780,-43.719513,8.109756,0.992188,-0.010742,-0.229492
1762435487267444,-329.268311,81.036591,-65.609756,0.971680,-0.006836,-0.229004
1762435487277297,-274.207336,26.463415,-66.280487,0.956055,-0.030762,-0.221191
1762435487287150,-143.475616,144.573181,-40.975609,0.940430,-0.052734,-0.203613
1762435487297003,-27.012196,189.024399,-51.219513,0.932129,-0.045410,-0.184082
1762435487306855,-232.195129,204.634155,-99.573174,0.930664,-0.033203,-0.175293
1762435487316709,-106.890244,255.365860,-88.597565,0.937500,-0.030762,-0.169922
1762435487326561,74.451218,227.560974,-83.597565,0.953613,-0.042480,-0.174805
1762435487336413,-221.890244,282.012207,-107.987808,0.955566,-0.044922,-0.186035
1762435487346266,-58.963417,323.231720,-112.195122,0.956055,-0.035645,-0.196777
1762435487356118,-133.475616,243.414642,-175.243912,0.998047,-0.054199,-0.222168
1762435487365973,111.890244,148.841461,-100.121956,1.015625,-0.065918,-0.215332
1762435487375824,1133.414673,154.207321,-93.536591,1.010742,-0.037598,-0.187988
1762435487385677,315.792694,112.987808,-170.060974,1.032715,-0.024902,-0.142578
1762435487395529,161.219513,-19.085367,-119.573174,1.020996,-0.014160,-0.085449
1762435487405382,482.560974,-35.548782,-64.817078,0.995605,0.000977,-0.030273
1762435487415235,894.939026,15.731708,3.292683,0.998047,0.000000,0.006836
1762435487425088,683.353699,-116.036591,68.475609,1.004395,-0.006348,0.022949
1762435487434940,-170.731705,-114.878052,-15.548780,1.013184,-0.024414,0.009277
1762435487444793,-885.853699,45.609756,-59.573174,1.013672,-0.037109,-0.027344
1762435487454645,881.402466,-55.792683,72.621956,1.039062,-0.025879,-0.090820
1762435487464499,-62.743904,-216.158539,-53.841465,1.034668,-0.029785,-0.125488
1762435487474351,377.865875,-125.914635,-21.524391,1.026855,-0.055176,-0.159180
1762435487484203,96.097565,-10.853659,-2.926829,1.005859,-0.060547,-0.157227
1762435487494056,369.146362,-107.560982,10.670732,0.988281,-0.039062,-0.151855
1762435487503909,-112.987808,12.743903,-47.804878,0.976074,-0.023438,-0.141602
1762435487513762,54.939026,22.439026,-31.951220,0.969727,-0.029297,-0.114258
1762435487523614,901.341492,-22.865854,47.621952,0.964844,-0.050293,-0.098145
1762435487533467,38.902439,125.914635,-10.365854,0.965332,-0.044922,-0.089844
1762435487543319,-252.682938,107.195122,-80.670731,0.976562,-0.041504,-0.096680
1762435487553172,493.353668,94.146347,36.707317,0.990234,-0.044922,-0.125488
1762435487563025,132.256104,112.256104,-27.378050,0.994629,-0.039551,-0.143066
1762435487572877,-5.487805,111.280487,-80.060974,0.986816,-0.057129,-0.162109
1762435487582732,245.426834,184.695129,10.914635,0.977539,-0.065430,-0.180176
1762435487592584,134.329269,152.926834,-26.158537,0.967285,-0.050781,-0.186035
1762435487602436,-55.914635,145.792679,-69.268295,0.964355,-0.048340,-0.195312
1762435487612288,243.048782,180.365860,5.243903,0.958008,-0.043457,-0.181152
1762435487622141,416.768311,126.951225,10.304878,0.961914,-0.038574,-0.161133
1762435487631994,-74.146347,181.402451,-15.304878,0.975098,-0.036621,-0.139648
1762435487641847,-232.804886,145.609756,-4.512195,0.991699,-0.027344,-0.113281
1762435487651699,37.500000,50.182926,66.768295,1.006836,-0.019531,-0.093262
1762435487661552,151.890244,125.365860,94.878052,1.016113,-0.007812,-0.077637
1762435487671404,-37.743904,21.158537,92.621956,1.019531,-0.007812,-0.067871
1762435487681257,-274.024384,-32.804878,103.292686,1.013672,-0.013184,-0.064941
1762435487691110,-392.500000,15.304878,90.792686,1.008789,-0.007812,-0.068359
1762435487700962,-218.353668,-31.341465,93.414635,1.011719,-0.004395,-0.077637
1762435487710815,1.646342,-125.487808,131.036591,1.012695,-0.008789,-0.085938
1762435487720668,41.524391,-91.524391,117.865860,1.010254,-0.017578,-0.086914
1762435487730520,-79.024391,-53.902439,87.743904,1.010742,-0.025879,-0.085938
1762435487740373,-45.243904,-93.292686,90.548782,1.011719,-0.023926,-0.083984
1762435487750226,112.134148,-116.341469,97.134148,1.009277,-0.016602,-0.080566
1762435487760078,174.939026,-57.317074,70.243904,1.005859,-0.020508,-0.076172
1762435487769931,99.878052,-56.158539,58.841465,1.005859,-0.034180,-0.073242
1762435487779784,97.195122,-79.085365,51.768295,1.001953,-0.040527,-0.075684
1762435487789636,183.353668,-12.195122,34.390244,0.999512,-0.038574,-0.086914
1762435487799492,245.426834,-7.378049,19.512196,0.998535,-0.036133,-0.099121
1762435487809343,217.621964,-61.768295,3.963415,0.994629,-0.043457,-0.111328
1762435487819194,219.756104,-12.256098,-2.195122,0.986328,-0.051758,-0.121582
1762435487829047,283.902435,38.109756,-11.402439,0.984863,-0.049805,-0.131348
1762435487838900,168.719513,-7.073171,-26.524391,0.986816,-0.042480,-0.140137
1762435487848752,264.939026,-20.426830,-25.853659,0.987305,-0.036133,-0.140625
1762435487858605,366.341461,10.487805,-26.036587,0.988770,-0.036621,-0.133301
1762435487868458,246.951233,11.585366,-35.792683,0.997070,-0.039551,-0.122070
1762435487878311,123.719513,10.548780,-38.719513,1.006836,-0.036621,-0.112305
1762435487888164,125.914635,8.475610,-18.109756,1.015625,-0.022461,-0.103516
1762435487898016,231.890244,-26.890245,1.036585,1.014648,-0.010742,-0.095215
1762435487907869,177.317078,-39.390244,8.780488,1.011719,-0.015625,-0.090332
1762435487917721,-134.573181,5.365854,0.000000,1.008301,-0.019043,-0.091309
1762435487927574,-429.817078,-16.158537,-10.487805,1.009766,-0.009766,-0.100586
1762435487937427,-228.963425,-38.841465,15.548780,1.014648,0.003418,-0.114258
1762435487947280,-205.670731,-70.731712,17.621952,1.023438,0.004883,-0.123047
1762435487957133,-410.975616,-82.439026,0.426829,1.026367,-0.011230,-0.123535
1762435487966985,-367.987823,-42.012196,24.756098,1.027344,-0.019043,-0.120605
1762435487976837,-405.670746,-49.634148,26.341465,1.027344,-0.005859,-0.116211
1762435487986690,-847.195129,-72.134148,3.536585,1.025391,0.002441,-0.108887
1762435487996543,-326.829285,-51.219513,29.756098,1.021973,-0.005371,-0.099121
1762435488006395,-281.829285,-37.195122,38.841465,1.020508,-0.011719,-0.094238
1762435488016249,-981.036621,-24.878050,-4.024390,1.020020,-0.009766,-0.099609
1762435488026102,-358.719513,8.536586,9.390244,1.020508,-0.005859,-0.110352
1762435488035954,-169.817078,-7.073171,15.304878,1.021973,-0.003418,-0.125977
1762435488045806,-670.548767,-17.865854,-39.207317,1.015137,-0.012695,-0.137207
1762435488055659,-259.695129,44.207317,-13.597561,1.005859,-0.028320,-0.148438
1762435488065511,-241.829269,86.341469,-24.329269,1.002441,-0.031250,-0.159668
1762435488075364,-377.987823,53.536587,-62.073174,1.000000,-0.030273,-0.168457
1762435488085218,-154.268295,72.926834,-50.182926,0.996582,-0.035156,-0.171875
1762435488095069,-138.292679,122.134148,-73.658539,0.993652,-0.045898,-0.166016
1762435488104922,-212.317078,102.682930,-89.573174,0.992188,-0.057617,-0.156250
1762435488114775,-112.378052,124.817078,-81.402443,0.987793,-0.056152,-0.145996
1762435488124627,-43.902439,146.036591,-97.865852,0.989258,-0.047363,-0.136719
1762435488134480,45.670734,107.804878,-103.719513,0.992188,-0.048828,-0.125977
1762435488144333,240.365860,84.024391,-85.060974,0.994629,-0.057617,-0.116699
1762435488154185,215.792694,87.987808,-95.914635,0.999512,-0.058105,-0.109863
1762435488164038,123.597565,43.414635,-113.414635,1.003418,-0.053223,-0.104492
1762435488173891,331.402435,-5.792683,-76.829269,1.006348,-0.047363,-0.096680
1762435488183743,901.524414,-32.987804,-37.073174,1.006348,-0.039062,-0.086426
1762435488193596,402.621948,-78.292686,-30.731709,1.005371,-0.034668,-0.074219
1762435488203449,134.329269,-105.304878,-22.439026,1.004883,-0.034668,-0.061035
1762435488213301,95.670731,-99.939026,5.731708,1.005371,-0.030273,-0.052734
1762435488223154,90.365852,-119.573174,32.378048,1.008301,-0.021484,-0.049805
1762435488233007,120.914635,-140.548782,52.378052,1.012207,-0.020508,-0.053711
1762435488242862,47.012196,-134.268295,65.792686,1.012695,-0.026367,-0.060547
1762435488252713,-41.341465,-118.536591,68.658539,1.008789,-0.030273,-0.069824
1762435488262565,-14.695123,-114.146347,81.768295,1.002930,-0.029297,-0.082520
1762435488272418,5.365854,-99.268295,77.804878,0.999023,-0.028809,-0.096191
1762435488282270,-69.817078,-78.170731,68.597565,0.996094,-0.034668,-0.108887
1762435488292123,14.878049,-67.439026,86.890244,0.988281,-0.039551,-0.116699
1762435488301976,5.914634,-26.951220,82.012199,0.980469,-0.040039,-0.124023
1762435488311828,-102.073174,8.353659,65.853661,0.973145,-0.039551,-0.128906
1762435488321681,-18.170732,27.500000,70.426834,0.971680,-0.041504,-0.135254
1762435488331534,-72.378052,54.085365,71.951218,0.972168,-0.042969,-0.141113
1762435488341387,-58.475613,63.780491,71.646339,0.968262,-0.041016,-0.144043
1762435488351239,-69.878052,100.609756,65.000000,0.967773,-0.041504,-0.149414
1762435488361092,-161.646347,122.195122,63.841465,0.969238,-0.040527,-0.152344
1762435488370945,-119.573174,98.292686,70.000000,0.974609,-0.039551,-0.155762
1762435488380797,-173.353668,133.719513,64.329269,0.981445,-0.040039,-0.158691
1762435488390651,-168.902451,131.829269,68.658539,0.988770,-0.037598,-0.155273
1762435488400502,-134.878052,93.109756,78.780487,0.989746,-0.036621,-0.150391
1762435488410355,-224.573181,113.414635,74.085365,0.995605,-0.034668,-0.140137
1762435488420209,-220.731720,93.841469,64.024391,0.999512,-0.034668,-0.128906
1762435488430061,-181.890244,69.512199,77.500000,1.007812,-0.034180,-0.118652
1762435488439913,-126.463417,33.170731,80.670731,1.007812,-0.026855,-0.105469
1762435488449766,-53.597561,55.487804,71.646339,1.010742,-0.027832,-0.095703
1762435488459618,-35.365856,3.597561,87.439026,1.011230,-0.025391,-0.084961
1762435488469473,-14.268293,-52.073174,62.439026,1.012207,-0.026367,-0.078125
1762435488479324,-41.158539,-22.439026,53.536587,1.013184,-0.026367,-0.075195
1762435488489176,95.792686,-69.329269,46.707317,1.014160,-0.023926,-0.073730
1762435488499029,131.341461,-97.134148,49.634148,1.015625,-0.028320,-0.077148
1762435488508882,121.951225,-56.341465,30.487806,1.015625,-0.028809,-0.076172
1762435488518734,183.353668,-88.109756,15.426829,1.017578,-0.032715,-0.078613
1762435488528588,171.280487,-88.292686,11.463415,1.015137,-0.033691,-0.082520
1762435488538440,241.036591,-81.341469,1.036585,1.012207,-0.030762,-0.085938
1762435488548293,229.817078,-79.390244,-7.560976,1.005371,-0.032715,-0.091309
1762435488558145,177.987808,-49.085365,-23.780489,1.000000,-0.035645,-0.096191
1762435488567998,213.902451,-61.890244,-22.682928,0.994629,-0.036133,-0.102539
1762435488577850,171.951218,-24.329269,-43.109756,0.992676,-0.036621,-0.113281
1762435488587703,151.524399,-15.914635,-54.207317,0.994629,-0.036133,-0.121582
1762435488597556,254.451233,-36.280487,-58.536587,0.995605,-0.038086,-0.129883
1762435488607408,173.109756,1.158537,-75.914635,0.996094,-0.041016,-0.135742
1762435488617261,231.707321,16.890244,-80.853661,0.993652,-0.040039,-0.136719
1762435488627114,223.536591,11.646341,-84.085365,0.993164,-0.036621,-0.138184
1762435488636966,145.670731,33.597561,-100.426834,0.989746,-0.033203,-0.135742
1762435488646819,211.341461,39.268295,-94.512199,0.988770,-0.033691,-0.133301
1762435488656672,184.329269,36.646343,-87.743904,0.987305,-0.032227,-0.131836
1762435488666525,68.780487,58.963417,-103.475609,0.989746,-0.030273,-0.133301
1762435488676377,66.951218,62.439026,-92.317078,0.995605,-0.027344,-0.135742
1762435488686232,106.097565,51.097561,-85.243904,1.003906,-0.024902,-0.139648
1762435488696083,-1.280488,40.426830,-85.243904,1.010254,-0.023438,-0.141113
1762435488705934,-35.548782,42.865856,-78.597565,1.013672,-0.021484,-0.139160
1762435488715788,-107.500000,36.646343,-65.853661,1.016602,-0.017578,-0.134277
1762435488725641,-218.109756,18.841463,-60.365856,1.016113,-0.012207,-0.125000
1762435488735493,-255.853668,10.731708,-46.890244,1.015137,-0.011230,-0.114746
1762435488745346,-277.621948,14.268293,-30.914635,1.015625,-0.010742,-0.104980
1762435488755199,-352.073181,-7.256098,-29.573172,1.018066,-0.009277,-0.098145
1762435488765051,-353.719513,-22.560976,-23.719513,1.020020,-0.009277,-0.093750
1762435488774904,-209.573181,-20.670732,-12.682927,1.022461,-0.011719,-0.092773
1762435488784756,-166.768295,-33.658539,-9.024390,1.023438,-0.015137,-0.093262
1762435488794609,-176.280487,-64.878052,-16.097561,1.017578,-0.018066,-0.092773
1762435488804462,-112.987808,-37.134148,-19.634148,1.011719,-0.022949,-0.094727
1762435488814315,-69.268295,-40.548782,-20.975611,1.006348,-0.024902,-0.095703
1762435488824167,-45.487804,-53.658539,-30.609756,1.003418,-0.029297,-0.099121
1762435488834020,16.585365,-51.707317,-28.414635,0.999512,-0.033203,-0.100098
1762435488843872,119.695122,-24.329269,-36.585365,0.997559,-0.037109,-0.102051
1762435488853725,59.878052,-48.902439,-38.841465,0.994629,-0.039551,-0.102539
1762435488863578,144.024399,-33.353661,-44.756100,0.994141,-0.041992,-0.103027
1762435488873431,194.695129,-16.646341,-42.621952,0.994629,-0.044434,-0.104980
1762435488883283,195.792694,-29.634148,-39.329269,0.993652,-0.043945,-0.104492
1762435488893136,224.878052,-43.048782,-32.500000,0.989746,-0.042969,-0.104004
1762435488902989,229.268295,-6.402439,-29.512196,0.986328,-0.042480,-0.103516
1762435488912843,175.426834,-12.195122,-22.804878,0.987305,-0.041504,-0.104492
1762435488922695,159.634155,-38.292683,-4.329268,0.986816,-0.038086,-0.106445
1762435488932546,152.256104,-6.707317,3.231707,0.990234,-0.034180,-0.109375
1762435488942399,66.402443,-10.914635,8.536586,0.995117,-0.032715,-0.111328
1762435488952252,12.743903,-27.256098,27.134148,1.000488,-0.031738,-0.112793
1762435488962105,-4.695122,-16.158537,47.500000,0.998047,-0.025391,-0.112305
1762435488971959,-81.097565,-3.841464,51.829269,0.997070,-0.019531,-0.110840
1762435488981810,-190.914642,-24.756098,63.353661,0.994629,-0.017578,-0.109375
1762435488991663,-229.939026,-5.304878,75.182930,0.996582,-0.020020,-0.109863
1762435489001516,-267.560974,24.573172,84.329269,1.002441,-0.019531,-0.112793
1762435489011368,-227.317078,-19.146341,102.500000,1.001953,-0.013184,-0.114746
1762435489021221,-227.256104,-33.292683,106.158539,0.998535,-0.011230,-0.117188
1762435489031073,-309.878052,26.768293,92.439026,0.997070,-0.018066,-0.119141
1762435489040926,-326.890259,-3.170732,104.756104,1.000977,-0.022461,-0.121094
1762435489050779,-265.792694,-33.902439,112.682930,1.000488,-0.020996,-0.124512
1762435489060632,-252.073181,19.512196,97.865852,1.004395,-0.018555,-0.125977
1762435489070484,-189.695129,-25.487806,96.219513,1.000488,-0.020996,-0.122070
1762435489080337,-176.951218,-31.829269,95.243904,0.999023,-0.030273,-0.119629
1762435489090190,-230.548782,25.792683,86.402443,0.995605,-0.029297,-0.116211
1762435489100042,-157.195129,-13.536586,74.756096,0.996582,-0.024414,-0.115234
1762435489109895,-118.292686,-18.902439,70.060974,0.999023,-0.025391,-0.117676
1762435489119747,-48.963417,7.012195,59.817074,0.999023,-0.028320,-0.117188
1762435489129600,-25.426830,-28.719513,53.841465,1.002441,-0.033203,-0.117188
1762435489139454,-64.146339,5.792683,35.975609,0.999512,-0.035156,-0.118652
1762435489149306,16.463415,-22.256098,30.060976,1.007812,-0.032715,-0.115234
1762435489159158,168.170731,-36.280487,13.536586,1.005371,-0.034180,-0.114746
1762435489169011,151.219513,7.500000,8.780488,1.002441,-0.036621,-0.110840
1762435489178863,185.975616,-24.207317,8.902439,0.988281,-0.034180,-0.104980
1762435489188716,126.341469,21.829269,-19.695122,0.984375,-0.037109,-0.106934
1762435489198569,78.963417,45.182926,-30.426830,0.985352,-0.036621,-0.111328
1762435489208421,262.195129,-10.853659,-24.695122,0.994141,-0.037598,-0.122559
1762435489218274,187.134155,-1.768293,-34.939026,1.000000,-0.038574,-0.132812
1762435489228127,290.000000,33.963417,-55.121952,1.005859,-0.040527,-0.136230
1762435489237980,304.451233,-11.524390,-38.841465,1.008301,-0.039551,-0.136230
1762435489247832,238.902451,-19.207317,-49.756100,1.001953,-0.027832,-0.127930
1762435489257685,211.158539,3.597561,-59.817074,0.998047,-0.021484,-0.117676
1762435489267538,236.463425,13.414635,-44.634148,0.996094,-0.022461,-0.106934
1762435489277391,179.146347,-20.609756,-34.268295,0.998535,-0.023438,-0.100586
1762435489287243,53.719513,6.951220,-47.012196,1.002441,-0.020996,-0.100098
1762435489297095,106.280487,41.524391,-49.939026,1.012695,-0.020996,-0.106934
1762435489306948,155.426834,-7.804878,-30.548780,1.021973,-0.020996,-0.117188
1762435489316800,92.804878,-22.743902,-38.292683,1.021973,-0.020508,-0.125488
1762435489326653,35.426830,21.585367,-43.841465,1.016602,-0.020996,-0.130859
1762435489336506,-5.609756,13.170732,-38.902439,1.011230,-0.018555,-0.132812
1762435489346359,-84.573174,-17.012196,-36.036587,1.003906,-0.015137,-0.131836
1762435489356214,-82.865852,16.585365,-35.853661,0.998047,-0.014160,-0.127441
1762435489366065,-71.646339,42.195122,-38.292683,1.000000,-0.019043,-0.123047
1762435489375917,-113.597565,16.951220,-33.780487,1.004395,-0.022949,-0.119629
1762435489385769,-48.658539,27.500000,-34.268295,1.007324,-0.022461,-0.118164
1762435489395622,13.536586,56.463417,-36.219513,1.008301,-0.021484,-0.118164
1762435489405475,-28.414635,18.841463,-39.634148,1.009277,-0.022949,-0.116699
1762435489415327,-63.963417,23.719513,-52.682930,1.008301,-0.030762,-0.118164
1762435489425181,-44.451221,67.865852,-46.341465,1.010254,-0.032227,-0.119141
1762435489435033,57.378052,1.036585,-38.719513,1.006348,-0.026855,-0.118164
1762435489444886,29.451220,12.012196,-53.902439,1.001953,-0.029297,-0.118652
1762435489454738,34.390244,44.024391,-47.560978,0.995605,-0.032715,-0.112305
1762435489464591,105.731712,1.463415,-38.658539,0.993164,-0.035156,-0.108887
1762435489474443,-29.024391,17.378050,-48.780487,0.992188,-0.034180,-0.107910
1762435489484296,74.939026,36.768295,-50.853661,0.997559,-0.032715,-0.105469
1762435489494149,235.000000,-25.000000,-21.097561,1.001465,-0.035156,-0.104492
1762435489504001,135.426834,-15.914635,-27.500000,1.002930,-0.034668,-0.101562
1762435489513854,43.475613,-4.390244,-41.341465,1.003418,-0.035156,-0.097168
1762435489523707,103.719513,-23.414635,-16.707317,1.003418,-0.034180,-0.094238
1762435489533559,102.682930,-43.292683,-1.036585,1.001465,-0.028320,-0.091309
1762435489543412,45.365856,-30.243904,-8.475610,0.999023,-0.027344,-0.088379
1762435489553265,33.170731,-27.804878,7.804878,0.996582,-0.030762,-0.087891
1762435489563117,5.487805,-41.158539,22.317074,0.994629,-0.030273,-0.090332
1762435489572970,-55.365856,-22.621952,18.170732,0.995117,-0.028320,-0.096191
1762435489582825,-2.500000,-23.353659,27.804878,0.995117,-0.027344,-0.102051
1762435489592676,6.585366,-42.439026,38.475609,0.996582,-0.030273,-0.107422
1762435489602528,-87.682930,-22.012196,36.158539,0.995605,-0.032715,-0.110840
1762435489612381,-78.109756,-1.219512,38.109756,0.997070,-0.032227,-0.112793
1762435489622234,-85.670731,-17.804878,46.951221,0.999023,-0.029785,-0.114258
1762435489632086,-115.670738,-21.951220,45.975613,1.000000,-0.028809,-0.112793
1762435489641941,-103.597565,1.585366,50.243904,0.999512,-0.031250,-0.109863
1762435489651792,-122.743904,3.414634,58.414635,0.998047,-0.031738,-0.106445
1762435489661644,-172.378052,-5.914634,59.268295,0.995117,-0.028320,-0.104980
1762435489671496,-157.439026,7.012195,59.939026,0.992676,-0.025391,-0.104980
1762435489681349,-137.987808,13.292684,60.670734,0.992676,-0.026367,-0.107910
1762435489691202,-193.109756,-6.585366,60.914635,0.995605,-0.028809,-0.112305
1762435489701054,-171.341461,-4.268293,55.426830,0.999023,-0.030762,-0.116699
1762435489710907,-116.219513,17.865854,49.451221,1.004883,-0.032715,-0.120605
1762435489720760,-86.402443,-9.695122,55.426830,1.003906,-0.031250,-0.120117
1762435489730612,-73.719513,-37.865856,53.109756,1.000488,-0.029297,-0.115234
1762435489740465,-107.621956,11.768293,33.475609,0.997070,-0.032715,-0.109375
1762435489750319,-137.621948,8.109756,31.890245,1.001953,-0.034668,-0.104004
1762435489760171,-51.158539,-42.804878,41.036587,1.002441,-0.031738,-0.100098
1762435489770023,32.195122,7.012195,35.914635,1.002441,-0.027832,-0.099121
1762435489779876,26.219513,-1.585366,28.536587,0.999023,-0.027832,-0.096680
1762435489789729,-20.182928,-24.268293,23.597561,0.998535,-0.033691,-0.100098
1762435489799582,-52.560978,-15.121952,25.365854,0.998047,-0.031250,-0.102539
1762435489809436,40.121952,4.695122,2.743902,1.001465,-0.028809,-0.109863
1762435489819287,-23.475611,-15.853659,8.048780,1.006836,-0.030762,-0.115234
1762435489829139,132.073181,-44.268295,16.646341,1.004395,-0.030762,-0.113770
1762435489838992,96.707321,-9.817074,5.000000,1.000488,-0.031738,-0.113281
1762435489848845,-59.451221,5.792683,-14.512196,0.995117,-0.028320,-0.108887
1762435489858698,22.195122,-13.902439,-5.426829,0.998047,-0.028320,-0.108398
1762435489868551,68.536591,-15.548780,10.365854,0.997559,-0.023926,-0.106445
1762435489878402,53.902439,7.256098,-20.487804,1.001953,-0.025391,-0.105957
1762435489888256,-1.890244,-2.256098,-12.804878,1.005371,-0.030762,-0.106934
1762435489898108,104.512199,-1.158537,-6.036585,1.006348,-0.029297,-0.108398
1762435489907961,44.878052,1.951220,-13.841464,1.006836,-0.024414,-0.112305
1762435489917813,6.158537,8.719512,-26.768293,1.003906,-0.021973,-0.113281
1762435489927666,58.841465,-10.853659,-14.939025,1.003906,-0.025879,-0.114746
1762435489937518,-4.390244,5.548780,-15.000000,1.001953,-0.025391,-0.115234
1762435489947371,-71.646339,11.097561,-26.402439,1.002441,-0.021484,-0.115723
1762435489957224,-28.292683,2.500000,-20.487804,1.004883,-0.020020,-0.115234
1762435489967077,13.475610,8.536586,-19.085367,1.007812,-0.021973,-0.114258
1762435489976929,-35.000000,3.658537,-19.207317,1.006836,-0.023438,-0.111328
1762435489986782,-34.939026,17.012196,-22.621952,1.003418,-0.022949,-0.109863
1762435489996635,-45.426830,25.731709,-21.036587,1.001465,-0.020508,-0.109863
1762435490006488,-47.256100,19.512196,-26.463415,0.999023,-0.020508,-0.111816
1762435490016340,-44.329269,22.987806,-25.182928,0.999512,-0.023926,-0.114746
1762435490026192,-14.878049,34.146343,-26.402439,0.999023,-0.026367,-0.117676
1762435490036047,-31.707317,29.817074,-35.548782,1.001465,-0.028320,-0.121582
1762435490045899,-13.902439,27.134148,-39.268295,1.003418,-0.028809,-0.123535
1762435490055750,68.597565,29.024391,-39.085365,1.004395,-0.030762,-0.123535
1762435490065603,56.158539,20.365854,-38.719513,1.003418,-0.031738,-0.119141
1762435490075456,63.353661,22.195122,-46.646343,1.000488,-0.031738,-0.112793
1762435490085308,75.792686,25.731709,-43.292683,0.998047,-0.031250,-0.106445
1762435490095162,104.024391,17.804878,-41.097561,0.997070,-0.030273,-0.100098
1762435490105014,111.097565,8.231708,-39.390244,0.997559,-0.031250,-0.097656
1762435490114866,133.231705,15.121952,-36.402439,0.998535,-0.032227,-0.096191
1762435490124719,141.890244,1.219512,-33.597561,1.000488,-0.032715,-0.097656
1762435490134572,121.646347,-12.621951,-33.963417,1.002441,-0.033203,-0.100586
1762435490144424,147.987808,-1.890244,-32.500000,1.003906,-0.034180,-0.104004
1762435490154277,150.975616,-22.865854,-18.902439,1.003418,-0.032715,-0.104492
1762435490164130,138.902435,-29.085367,-19.939024,1.001953,-0.031250,-0.104004
1762435490173982,78.902443,-12.560976,-17.317074,1.000000,-0.030762,-0.102539
1762435490183835,87.317078,-17.865854,-6.036585,0.999512,-0.029297,-0.099609
1762435490193688,75.792686,-33.841465,4.817073,0.999512,-0.028320,-0.098145
1762435490203540,28.475611,-9.512196,5.243903,0.998047,-0.026855,-0.097168
1762435490213393,27.134148,-14.939025,11.768293,0.998535,-0.027832,-0.097168
1762435490223246,2.317073,-16.036585,18.475611,1.000000,-0.029297,-0.099609
1762435490233098,-27.804878,-1.158537,18.292683,0.999023,-0.028809,-0.103516
1762435490242951,3.658537,-4.695122,23.902439,0.998535,-0.028320,-0.107910
1762435490252804,-17.743902,-3.048780,25.365854,0.996582,-0.030273,-0.112305
1762435490262658,-55.426830,12.439025,25.365854,0.994141,-0.031250,-0.115234
1762435490272509,-34.207317,10.548780,29.878050,0.992676,-0.031250,-0.117188
1762435490282362,-65.487808,15.000000,28.109756,0.992676,-0.031250,-0.119141
1762435490292214,-75.304878,20.304878,29.817074,0.993164,-0.031250,-0.118652
1762435490302067,-26.341465,16.585365,35.609756,0.993652,-0.032227,-0.116699
1762435490311920,-56.768295,26.829269,32.256100,0.994629,-0.033691,-0.114258
1762435490321773,-71.585365,28.780489,31.890245,0.994629,-0.032715,-0.110840
1762435490331625,-31.524391,18.963415,37.500000,0.994141,-0.031250,-0.108887
1762435490341478,-42.012196,26.280489,36.707317,0.995117,-0.030273,-0.107910
1762435490351331,-58.353661,19.756098,34.268295,0.996582,-0.031250,-0.106934
1762435490361183,-32.987804,7.134147,37.560978,0.998535,-0.031250,-0.106934
1762435490371036,-42.865856,6.097561,32.073170,1.001465,-0.031250,-0.107422
1762435490380888,-32.865856,6.707317,29.146341,1.004395,-0.031250,-0.106934
1762435490390742,12.743903,-13.109756,36.585365,1.006348,-0.031250,-0.104492
1762435490400594,45.060978,-18.231709,31.829269,1.005371,-0.030273,-0.100098
1762435490410446,11.280488,-12.317074,27.378050,1.002930,-0.029297,-0.096680
1762435490420299,-0.731707,-21.524391,31.219513,1.000000,-0.027832,-0.092773
1762435490430151,27.073172,-31.402439,31.890245,0.999512,-0.026367,-0.090332
1762435490440005,21.890244,-26.890245,23.780489,1.000977,-0.026855,-0.090332
1762435490449857,17.500000,-32.560978,17.987804,1.003418,-0.029297,-0.092285
1762435490459709,64.573174,-42.073174,22.987806,1.005371,-0.030273,-0.094727
1762435490469562,96.463417,-30.487806,14.695123,1.004395,-0.029785,-0.097656
1762435490479417,65.426834,-27.743902,3.841464,1.002930,-0.030273,-0.100098
1762435490489269,75.731712,-31.585367,4.390244,0.999512,-0.031738,-0.103027
1762435490499120,68.841469,-18.902439,0.304878,0.997070,-0.031250,-0.105957
1762435490508973,52.682930,-7.560976,-9.878049,0.996582,-0.030762,-0.108887
1762435490518826,64.939026,-13.170732,-11.707317,0.996582,-0.031738,-0.112305
1762435490528679,80.304878,-4.329268,-12.804878,0.997070,-0.032715,-0.114258
1762435490538531,75.000000,8.536586,-20.792683,0.997070,-0.032715,-0.116211
1762435490548384,68.292686,9.695122,-23.231709,0.995605,-0.032715,-0.117188
1762435490558236,65.914635,15.365854,-23.475611,0.994141,-0.031250,-0.117676
1762435490568089,45.792683,24.207317,-27.560976,0.993164,-0.029785,-0.118164
1762435490577942,22.743902,28.597561,-30.792685,0.993164,-0.030273,-0.119141
1762435490587794,13.719513,29.146341,-27.987806,0.995117,-0.030273,-0.120605
1762435490597647,2.500000,31.097561,-29.512196,0.998047,-0.028809,-0.122070
1762435490607499,-16.463415,30.000000,-31.036587,1.000977,-0.027832,-0.122070
1762435490617352,-7.987805,23.231709,-26.951220,1.003418,-0.027344,-0.120605
1762435490627205,-26.890245,19.329269,-23.109756,1.002930,-0.025879,-0.117188
1762435490637057,-75.853661,20.000000,-24.878050,1.001953,-0.024414,-0.112305
1762435490646911,-95.060974,17.134148,-22.317074,1.001953,-0.023438,-0.107910
1762435490656763,-95.609756,11.280488,-16.036585,1.002930,-0.022461,-0.104980
1762435490666616,-102.012199,8.353659,-15.975610,1.005371,-0.022461,-0.103027
1762435490676468,-101.036591,3.597561,-15.609756,1.008301,-0.023438,-0.102051
1762435490686321,-80.426834,-3.231707,-13.475610,1.009766,-0.024414,-0.102539
1762435490696174,-68.963417,-8.902439,-12.682927,1.009766,-0.024902,-0.102539
1762435490706028,-53.658539,-12.256098,-14.695123,1.006836,-0.025391,-0.102051
1762435490715880,-42.073174,-14.512196,-14.268293,1.002441,-0.026367,-0.101562
1762435490725732,-50.487804,-9.573171,-17.560976,0.999512,-0.028320,-0.101074
1762435490735584,-43.902439,-7.804878,-20.060976,0.998047,-0.029785,-0.101562
1762435490755289,35.853661,-8.963415,-22.926830,1.000488,-0.033203,-0.104492
1762435490765142,53.048782,-9.390244,-26.524391,1.000977,-0.035645,-0.105469
1762435490774995,76.707321,-11.585366,-26.646341,1.000000,-0.036621,-0.105469
1762435490784848,77.134148,-8.658537,-28.414635,0.998535,-0.037109,-0.104980
1762435490794700,79.939026,-4.085366,-29.146341,0.996582,-0.036621,-0.104004
1762435490804553,101.402443,-13.597561,-24.024391,0.994629,-0.036133,-0.102539
1762435490814405,102.560982,-9.756098,-22.987806,0.993164,-0.036133,-0.101562
1762435490824258,69.756096,-0.487805,-22.195122,0.993652,-0.036621,-0.102051
1762435490834111,77.560974,-8.475610,-15.975610,0.994629,-0.036133,-0.102539
1762435490843964,85.487808,-10.853659,-9.390244,0.995605,-0.034668,-0.104492
1762435490853816,59.024391,-4.451220,-7.804878,0.996582,-0.034180,-0.105957
1762435490863669,45.487804,-10.548780,-2.073171,0.997070,-0.034180,-0.106445
1762435490873521,22.682928,-13.536586,6.890244,0.996582,-0.032715,-0.106445
1762435490883374,-16.768293,-4.207317,10.000000,0.996094,-0.030273,-0.106445
1762435490893227,-42.987804,-4.817073,15.304878,0.996582,-0.029297,-0.105957
1762435490903079,-42.987804,-12.073171,25.670732,0.998047,-0.028809,-0.105469
1762435490912933,-72.560974,-5.853659,29.268293,0.999023,-0.028320,-0.104980
1762435490922785,-108.109756,-0.121951,31.646341,1.000488,-0.027832,-0.105469
1762435490932640,-99.268295,-9.085366,40.182926,1.000488,-0.026855,-0.105957
1762435490942491,-107.682930,-9.451220,44.512196,1.000488,-0.025879,-0.106445
1762435490952343,-140.792679,-2.378049,41.646343,1.000000,-0.026367,-0.106934
1762435490962195,-134.512192,-4.329268,46.341465,0.999512,-0.028320,-0.107910
1762435490972048,-120.487808,-11.951220,51.097561,0.998535,-0.027832,-0.108398
1762435490981901,-126.280487,-7.987805,44.817074,0.997070,-0.027344,-0.108887
1762435490991755,-120.243904,2.804878,41.463417,0.996582,-0.030273,-0.109375
1762435491001606,-85.000000,-5.243903,46.402439,0.996582,-0.032227,-0.109375
1762435491011459,-71.036591,-5.426829,40.060978,0.995605,-0.032227,-0.109863
1762435491021311,-72.987808,13.780488,29.207317,0.995605,-0.032715,-0.110840
1762435491031164,-31.890245,6.646342,31.463415,0.996582,-0.034668,-0.111816
1762435491041017,-3.963415,-7.560976,31.463415,0.996582,-0.034668,-0.112305
1762435491050869,-16.341463,9.329268,18.841463,0.995605,-0.034668,-0.112305
1762435491060722,6.646342,10.914635,16.158537,0.996582,-0.035156,-0.111328
1762435491070574,44.756100,-9.329268,20.548780,0.996582,-0.034668,-0.109375
1762435491080427,40.609756,-1.280488,13.170732,0.996094,-0.033691,-0.106934
1762435491090280,40.914635,12.682927,3.902439,0.997070,-0.034180,-0.105469
1762435491100132,64.512199,-7.317073,9.268293,0.999023,-0.033691,-0.104004
1762435491109985,65.060974,-15.000000,6.219512,1.001953,-0.032227,-0.103516
1762435491119838,82.317078,8.353659,-4.756098,1.003906,-0.033203,-0.103516
1762435491129691,89.268295,-5.060976,6.463415,1.006836,-0.032227,-0.103516
1762435491139544,96.097565,-42.865856,1.280488,1.005371,-0.029297,-0.102539
1762435491149396,60.060978,16.341463,-12.012196,1.005371,-0.031250,-0.104980
1762435491159251,54.817074,-9.085366,5.975610,1.002441,-0.027832,-0.102539
1762435491169102,91.402443,-48.658539,1.036585,1.000488,-0.026367,-0.103516
1762435491178954,-24.695122,17.500000,-13.475610,0.998535,-0.027344,-0.105469
1762435491188807,50.304878,9.512196,-9.024390,0.999023,-0.028320,-0.106445
1762435491198659,39.756100,-33.353661,0.853659,1.000977,-0.029297,-0.111816
1762435491208512,-7.560976,28.353659,-18.536587,1.000000,-0.027832,-0.114258
1762435491218366,59.939026,23.048780,-17.743902,1.001953,-0.029297,-0.117188
1762435491228217,35.670734,-8.658537,-12.926829,1.000488,-0.030762,-0.119141
1762435491238070,0.000000,30.243904,-23.170732,0.998047,-0.030273,-0.120117
1762435491247921,20.609756,34.207317,-21.890244,0.995605,-0.028320,-0.119141
1762435491257775,-3.719512,27.804878,-27.865854,0.997070,-0.029785,-0.120605
1762435491267628,-43.963417,28.353659,-22.073172,0.996582,-0.029785,-0.119141
1762435491277480,45.853661,33.231709,-23.048780,0.997070,-0.028809,-0.117676
1762435491287333,-34.939026,42.439026,-30.487806,1.000000,-0.030273,-0.118164
1762435491297186,-33.841465,29.451220,-28.231709,1.000488,-0.029785,-0.115234
1762435491307038,40.670734,18.536587,-18.536587,1.000977,-0.029785,-0.114258
1762435491316891,-15.792684,47.926830,-29.207317,1.000977,-0.029297,-0.112305
1762435491326744,-33.597561,18.780489,-28.963415,1.002441,-0.030273,-0.109863
1762435491336596,13.109756,5.731708,-16.097561,1.001465,-0.030273,-0.108398
1762435491346449,-1.951220,26.524391,-22.804878,1.002441,-0.028320,-0.106445
1762435491356302,-30.243904,1.707317,-23.780489,1.002441,-0.028809,-0.104004
1762435491366154,13.231708,-13.231708,-11.402439,1.002441,-0.029785,-0.101074
1762435491376007,17.317074,0.365854,-12.865854,1.000977,-0.028809,-0.098633
1762435491385862,-25.304878,-4.573171,-19.329269,1.002441,-0.029297,-0.096680
1762435491395713,4.390244,-28.658537,-8.414635,1.002441,-0.029785,-0.095215
1762435491405565,63.231709,-18.353659,-5.304878,1.001953,-0.030273,-0.095215
1762435491415417,6.158537,-11.951220,-9.024390,1.002441,-0.030273,-0.095215
1762435491425270,5.853659,-43.536587,-10.426829,1.001953,-0.031738,-0.095215
1762435491435123,28.231709,-13.719513,-7.195122,1.004395,-0.034668,-0.098145
1762435491444977,39.878048,-22.317074,-1.646342,1.002441,-0.032227,-0.097656
1762435491454828,60.853661,-46.646343,-4.756098,1.000000,-0.032227,-0.099121
1762435491464681,12.560976,-11.280488,-5.426829,0.996582,-0.034668,-0.099609
1762435491474533,44.939026,-9.817074,-3.231707,0.994629,-0.035645,-0.099609
1762435491484386,21.280489,-32.621952,2.073171,0.993652,-0.035645,-0.102539
1762435491494239,15.670732,4.756098,-3.536585,0.992676,-0.034668,-0.105469
1762435491504091,53.963417,-4.756098,2.621951,0.993652,-0.035156,-0.107422
1762435491513944,25.487806,-21.036587,2.439024,0.995605,-0.037109,-0.109863
1762435491523797,-16.646341,10.914635,-1.890244,0.996582,-0.038086,-0.111816
1762435491533649,12.439025,7.743903,8.109756,0.997559,-0.035645,-0.111816
1762435491543502,18.353659,-13.719513,11.646341,0.997070,-0.032715,-0.111328
1762435491553355,-38.048782,1.280488,10.426829,0.995117,-0.032227,-0.108398
1762435491563207,-38.597561,14.634147,15.548780,0.993652,-0.033203,-0.105957
1762435491573060,-84.695122,3.963415,23.597561,0.995605,-0.031738,-0.105469
1762435491582913,-118.536591,0.548781,22.682928,0.997070,-0.027832,-0.105957
1762435491592765,-83.536591,5.060976,25.426830,1.000977,-0.027832,-0.107422
1762435491602618,-85.426834,-4.634147,33.231709,1.003418,-0.029785,-0.107910
1762435491612473,-111.524391,-15.670732,35.182926,1.002930,-0.030273,-0.107422
1762435491622324,-133.658539,-0.426829,33.231709,1.000488,-0.028320,-0.106445
1762435491632175,-127.195122,-0.121951,32.743904,0.999512,-0.026855,-0.105469
1762435491642029,-134.146347,-22.865854,40.182926,0.998535,-0.026855,-0.104980
1762435491651882,-121.829269,-11.829268,37.987804,0.997070,-0.027832,-0.103516
1762435491661734,-125.914635,5.426829,31.951220,0.998535,-0.029297,-0.104492
1762435491671586,-121.829269,-12.256098,32.073170,1.000488,-0.030273,-0.105957
1762435491681439,-74.512199,-14.756098,31.402439,1.001465,-0.030273,-0.107910
1762435491691292,-49.390244,4.573171,25.182928,1.000977,-0.031250,-0.108887
1762435491701145,-46.829269,-6.585366,20.121952,0.999023,-0.033203,-0.109375
1762435491710997,-41.768295,-11.890244,21.280489,0.995605,-0.033691,-0.109375
1762435491720850,-28.841465,9.451220,13.719513,0.991699,-0.032227,-0.109375
1762435491730702,-36.341465,7.012195,5.792683,0.992676,-0.032715,-0.109863
1762435491740555,-16.951220,-1.036585,5.000000,0.995605,-0.035156,-0.111328
1762435491750408,33.536587,3.048780,4.024390,0.998535,-0.036133,-0.112305
1762435491760260,51.707317,5.609756,-4.756098,1.000977,-0.035645,-0.111816
1762435491770113,56.219513,-1.158537,-7.500000,1.001465,-0.035156,-0.110352
1762435491779966,86.402443,-9.024390,-4.268293,1.000488,-0.033203,-0.106934
1762435491789818,84.207321,-2.317073,-10.121951,0.998535,-0.032227,-0.103516
1762435491799671,40.609756,-5.182927,-15.975610,1.000488,-0.032227,-0.100586
1762435491809524,81.463417,-8.841464,-12.621951,1.000488,-0.032227,-0.099609
1762435491819376,106.158539,-15.182927,-3.048780,1.001953,-0.029785,-0.099609
1762435491829229,94.817078,-19.085367,-15.121952,1.001953,-0.027832,-0.099609
1762435491839084,54.939026,-12.134147,-20.975611,1.004395,-0.031250,-0.102051
1762435491848935,81.158539,-17.256098,-10.000000,1.005859,-0.031250,-0.103027
1762435491858787,94.634148,-32.134148,-15.670732,1.007324,-0.028809,-0.105469
1762435491868640,48.719513,-4.939024,-26.768293,1.006348,-0.028809,-0.107422
1762435491878492,107.134148,-10.243902,-15.975610,1.003906,-0.029785,-0.106934
1762435491888345,99.817078,-28.841465,-10.792684,0.999023,-0.028809,-0.106445
1762435491898198,5.121951,15.853659,-31.219513,0.995117,-0.028809,-0.107422
1762435491908051,33.414635,18.475611,-24.390244,0.995117,-0.029785,-0.109863
1762435491917903,81.341469,-6.402439,-14.695123,0.996094,-0.029297,-0.114746
1762435491927755,10.182927,24.024391,-29.756098,0.998047,-0.030273,-0.119141
1762435491937608,41.280487,35.487804,-30.487806,0.999023,-0.032227,-0.121582
1762435491947461,69.146339,11.890244,-19.634148,0.999512,-0.033203,-0.124023
1762435491957314,0.243902,28.902439,-26.524391,0.996582,-0.030273,-0.123535
1762435491967166,17.926830,43.780487,-30.426830,0.993164,-0.029297,-0.121094
1762435491977019,25.609756,32.743904,-19.634148,0.991699,-0.030273,-0.119141
1762435491986871,-28.597561,35.609756,-19.695122,0.991211,-0.030273,-0.116211
1762435491996724,-42.073174,48.109756,-22.621952,0.994141,-0.029297,-0.115234
1762435492006577,-9.573171,42.621952,-17.439024,0.999023,-0.029785,-0.114746
1762435492016429,-2.073171,20.487804,-10.426829,1.003418,-0.029785,-0.114258
1762435492026282,2.743902,20.365854,-10.731708,1.003418,-0.029785,-0.111328
1762435492036135,-9.024390,25.975611,-9.329268,1.002930,-0.030273,-0.108398
1762435492045987,-36.402439,8.414635,-3.963415,1.000977,-0.028809,-0.104004
1762435492055840,-36.707317,-1.890244,0.304878,0.998047,-0.026855,-0.100098
1762435492065696,-16.463415,6.585366,2.195122,0.997559,-0.027344,-0.097168
1762435492075547,-22.621952,-4.207317,5.000000,0.999023,-0.028809,-0.095215
1762435492085398,-29.024391,-21.463415,8.170732,1.000488,-0.030273,-0.094727
1762435492095251,22.439026,-8.963415,9.329268,1.000977,-0.030273,-0.095215
1762435492105103,40.304878,-22.560976,11.951220,1.001465,-0.029297,-0.095703
1762435492114956,20.487804,-32.682926,5.914634,1.001465,-0.031738,-0.096191
1762435492124809,6.829268,-15.060976,5.487805,1.001465,-0.034668,-0.096680
1762435492134662,64.146339,-20.792683,10.304878,1.001465,-0.034180,-0.096680
1762435492144514,60.060978,-36.768295,8.231708,0.999512,-0.032715,-0.097656
1762435492154367,47.987804,-13.170732,2.987805,0.996582,-0.034668,-0.098145
1762435492164219,80.304878,-11.097561,11.219513,0.994141,-0.036133,-0.098145
1762435492174072,46.280487,-26.097561,9.634147,0.992188,-0.035645,-0.100098
1762435492183924,19.268293,5.304878,0.304878,0.991211,-0.035645,-0.104004
1762435492193777,57.865856,3.353659,10.182927,0.992676,-0.035645,-0.107422
1762435492203630,70.365852,-18.170732,10.304878,0.994629,-0.036133,-0.110840
1762435492213482,1.646342,9.512196,2.012195,0.995605,-0.037109,-0.113770
1762435492223335,29.512196,19.329269,8.353659,0.996582,-0.036621,-0.114258
1762435492233188,38.963417,-5.975610,14.817074,0.997559,-0.033691,-0.114258
1762435492243040,-23.231709,7.743903,9.634147,0.995605,-0.031738,-0.112305
1762435492252893,-19.146341,22.073172,14.512196,0.994629,-0.031250,-0.109375
1762435492262746,-42.378048,6.158537,23.902439,0.995605,-0.030762,-0.106934
1762435492272598,-114.817078,7.256098,19.512196,0.997070,-0.028320,-0.105957
1762435492282451,-94.451225,11.890244,22.317074,0.999512,-0.026367,-0.105469
1762435492292304,-57.195122,0.426829,30.243904,1.002930,-0.026855,-0.105957
1762435492302157,-108.414635,-10.548780,28.292683,1.003418,-0.027832,-0.105957
1762435492312009,-111.707321,-2.134146,26.951220,1.002930,-0.027832,-0.104980
1762435492321861,-97.134148,-1.219512,28.597561,1.002441,-0.026855,-0.104980
1762435492331714,-118.292686,-16.890244,24.756098,1.002930,-0.026367,-0.104492
1762435492341567,-90.670731,-14.695123,25.000000,1.002930,-0.027344,-0.103516
1762435492351420,-59.207317,-12.256098,26.036587,1.002441,-0.028320,-0.102539
1762435492361273,-83.353661,-11.585366,16.219513,1.003418,-0.029785,-0.102539
1762435492371125,-68.963417,-17.378050,15.182927,1.003418,-0.030273,-0.102051
1762435492380977,6.707317,-19.024391,15.731708,1.002441,-0.030273,-0.102051
1762435492390830,-18.292683,-10.060976,5.548780,1.001953,-0.030762,-0.103027
1762435492400683,-25.182928,-13.597561,-1.890244,1.000977,-0.033203,-0.103027
1762435492410535,40.487804,-14.268293,1.463415,1.000000,-0.034668,-0.104004
1762435492420388,36.036587,-8.963415,-5.548780,0.998535,-0.033203,-0.105469
1762435492430241,32.134148,-8.048780,-16.524391,0.996582,-0.033691,-0.106445
1762435492440093,64.512199,-8.658537,-13.170732,0.995605,-0.035645,-0.107910
1762435492449946,76.890244,0.060976,-17.560976,0.995605,-0.036133,-0.108887
1762435492459799,42.865856,2.073171,-26.341465,0.996094,-0.036133,-0.110352
1762435492469651,83.963417,-0.182927,-25.121952,0.997070,-0.035156,-0.111328
1762435492479504,110.853661,1.341463,-24.146341,0.998535,-0.034668,-0.112305
1762435492489357,72.621956,0.670732,-28.475611,0.998047,-0.034180,-0.111328
1762435492499209,70.914635,4.146341,-28.170732,0.998535,-0.034180,-0.110352
1762435492509062,74.817078,6.463415,-22.987806,0.998535,-0.032227,-0.108887
1762435492518915,55.487804,2.987805,-24.512196,0.998047,-0.029785,-0.107910
1762435492528769,32.073170,3.292683,-21.463415,0.999023,-0.029297,-0.107422
1762435492538621,22.317074,7.621952,-18.597561,1.000977,-0.029297,-0.107422
1762435492548473,-8.536586,4.451220,-16.707317,1.002930,-0.028809,-0.108887
1762435492558325,-14.512196,-0.365854,-12.439025,1.004883,-0.026855,-0.109863
1762435492568178,-2.317073,-2.926829,-9.268293,1.004883,-0.025391,-0.109863
1762435492578031,-39.207317,-0.426829,-8.841464,1.003906,-0.026367,-0.108887
1762435492587884,-65.548782,0.609756,-6.158537,1.002930,-0.026367,-0.107422
1762435492597736,-64.939026,-1.707317,-2.865854,1.001953,-0.025879,-0.106934
1762435492607588,-71.158539,4.817073,-4.878049,1.002441,-0.025391,-0.106445
1762435492617442,-54.512196,2.804878,-3.353659,1.002930,-0.026855,-0.106445
1762435492627294,-28.841465,-2.865854,0.792683,1.001465,-0.028809,-0.106445
1762435492637146,-42.804878,10.365854,-4.817073,1.000000,-0.030273,-0.106934
1762435492646999,-46.036587,14.207317,-8.109756,0.998535,-0.030762,-0.107910
1762435492656852,-4.024390,4.390244,-3.963415,0.996582,-0.031738,-0.109863
1762435492666704,1.341463,10.853659,-8.109756,0.994629,-0.032715,-0.110840
1762435492676557,-6.219512,18.658537,-12.743903,0.993652,-0.035156,-0.111816
1762435492686410,18.902439,12.134147,-10.975610,0.993652,-0.036621,-0.112305
1762435492696262,35.792683,13.170732,-11.463415,0.994141,-0.036133,-0.112305
1762435492706115,40.670734,18.231709,-15.609756,0.995117,-0.036133,-0.110840
1762435492715968,69.695122,10.792684,-12.317074,0.995605,-0.037109,-0.108398
1762435492725821,81.219513,8.170732,-9.634147,0.994629,-0.037109,-0.105957
1762435492735673,60.304878,14.268293,-10.060976,0.994141,-0.036133,-0.103516
1762435492745526,65.243904,12.012196,-8.658537,0.994629,-0.035645,-0.101562
1762435492755380,79.390244,3.170732,-2.073171,0.995605,-0.034668,-0.101074
1762435492765232,68.109756,-1.280488,0.304878,0.997070,-0.033691,-0.101074
1762435492775084,41.524391,-3.109756,1.585366,0.999023,-0.033691,-0.101562
1762435492784939,35.000000,-2.439024,7.134147,1.000977,-0.032715,-0.102051
1762435492794789,32.865856,-17.378050,14.085366,1.001953,-0.030273,-0.101562
1762435492804642,10.975610,-19.451220,14.268293,1.001465,-0.028809,-0.100586
1762435492814495,-15.365854,-10.975610,18.902439,1.000977,-0.029297,-0.099121
1762435492824347,-30.000000,-16.097561,26.280489,1.000977,-0.028320,-0.097656
1762435492834200,-53.475613,-18.109756,26.219513,1.000977,-0.026855,-0.097656
1762435492844052,-71.280487,-6.585366,26.768293,1.001953,-0.026367,-0.099121
1762435492853905,-56.402439,-13.414635,33.231709,1.002441,-0.026855,-0.101074
1762435492863757,-66.707321,-13.963415,33.841465,1.001953,-0.027832,-0.103516
1762435492873610,-84.451225,2.439024,30.487806,1.000000,-0.028320,-0.105957
1762435492883463,-77.317078,2.195122,31.402439,0.998047,-0.028320,-0.108887
1762435492893316,-98.658539,2.317073,29.756098,0.996582,-0.028809,-0.112305
1762435492903168,-101.768295,14.512196,26.585367,0.996094,-0.029297,-0.114746
1762435492913021,-82.439026,12.621951,25.609756,0.996094,-0.030762,-0.117188
1762435492922873,-90.060974,17.682928,23.353659,0.996094,-0.032227,-0.118164
1762435492932726,-87.926834,23.048780,20.609756,0.995605,-0.032227,-0.117676
1762435492942579,-76.646347,25.609756,19.329269,0.995605,-0.031250,-0.116699
1762435492952431,-84.390244,28.841465,15.792684,0.996582,-0.031250,-0.115234
1762435492962284,-79.878052,25.000000,14.939025,0.998047,-0.031250,-0.113770
1762435492972137,-72.987808,16.707317,15.609756,0.999512,-0.029785,-0.111816
1762435492981992,-80.000000,16.463415,10.609756,1.001465,-0.029785,-0.109863
1762435492991843,-75.426834,9.329268,9.207317,1.003418,-0.029785,-0.106934
1762435493001695,-36.341465,-6.097561,10.426829,1.003906,-0.029297,-0.103516
1762435493011547,-32.987804,2.987805,10.182927,1.002441,-0.027832,-0.100586
1762435493021400,-51.646343,-17.256098,6.951220,1.000488,-0.025879,-0.096191
1762435493031253,-12.743903,-16.768293,1.463415,1.002441,-0.027344,-0.094238
1762435493041105,-15.060976,-29.390245,5.243903,1.000000,-0.026367,-0.093750
1762435493050959,-5.182927,-26.768293,-3.719512,1.001953,-0.026855,-0.094727
1762435493060811,-7.195122,-15.243903,-5.670732,1.004395,-0.028320,-0.096680
1762435493070663,58.170734,-35.060978,-6.341464,1.004883,-0.028809,-0.097656
1762435493080516,63.658539,-38.231709,-10.060976,1.004395,-0.028809,-0.100098
1762435493090369,38.353661,-15.121952,-18.841463,1.000000,-0.028809,-0.101074
1762435493100221,49.695122,-21.463415,-16.829269,0.999023,-0.029297,-0.102539
1762435493110074,52.926830,-25.304878,-17.439024,0.996582,-0.028320,-0.104492
1762435493119926,39.085365,-3.414634,-27.926830,0.995605,-0.028809,-0.107910
1762435493129779,38.536587,-1.280488,-25.000000,0.997070,-0.030273,-0.110352
1762435493139632,60.182930,-4.451220,-25.426830,0.998535,-0.030762,-0.113770
1762435493149484,32.012196,6.402439,-28.780489,1.000000,-0.029785,-0.116211
1762435493159337,57.195122,9.939025,-29.756098,0.999512,-0.028320,-0.117188
1762435493169190,23.414635,5.975610,-25.365854,0.998047,-0.028320,-0.117676
1762435493179043,-2.743902,13.597561,-24.512196,0.995605,-0.026367,-0.115234
1762435493188895,-1.219512,21.829269,-23.719513,0.994141,-0.025391,-0.114258
1762435493198748,-53.841465,23.170732,-21.951220,0.995605,-0.024902,-0.114258
1762435493208601,-52.012196,22.012196,-19.939024,0.998535,-0.024414,-0.114746
1762435493218454,-36.219513,16.097561,-12.073171,1.000977,-0.023926,-0.115234
1762435493228306,-41.036587,18.109756,-13.841464,1.002930,-0.023926,-0.114746
1762435493238159,-72.743904,8.963415,-10.670732,1.002441,-0.023926,-0.112793
1762435493248011,-59.329269,5.060976,-6.219512,0.999512,-0.022949,-0.109863
1762435493257864,-76.280487,7.500000,-5.365854,0.998047,-0.022461,-0.106934
1762435493267716,-96.280487,6.402439,-4.817073,0.997070,-0.022461,-0.104004
1762435493277570,-56.463417,-3.536585,-1.402439,0.998535,-0.023926,-0.102539
1762435493287421,-44.939026,1.341463,-1.707317,1.000977,-0.025391,-0.102539
1762435493297274,-33.475609,-1.280488,-4.024390,1.002930,-0.026855,-0.102539
1762435493307128,10.487805,-15.487805,0.731707,1.003418,-0.027344,-0.102539
1762435493316980,32.804878,-10.792684,-1.402439,1.001465,-0.027832,-0.102051
1762435493326832,13.536586,-11.585366,-4.573171,0.998047,-0.028320,-0.101074
1762435493336685,33.475609,-16.951220,-2.560976,0.995117,-0.029785,-0.100098
1762435493346537,53.841465,-9.817074,-1.829268,0.993652,-0.030762,-0.100586
1762435493356390,48.963417,-9.146341,-4.512195,0.993652,-0.030762,-0.101074
1762435493366243,72.865852,-15.243903,-5.060976,0.994629,-0.032227,-0.102539
1762435493376095,100.731712,-8.658537,-3.048780,0.996582,-0.033691,-0.104004
1762435493385948,96.524391,-8.597561,-5.000000,0.997070,-0.034180,-0.105469
1762435493395801,97.012199,-10.792684,-2.560976,0.997070,-0.033203,-0.105957
1762435493405653,106.890244,-3.902439,0.365854,0.995605,-0.032227,-0.105957
1762435493415506,83.841469,-6.036585,3.231707,0.994141,-0.030762,-0.105957
1762435493425359,50.914635,-3.719512,4.512195,0.993652,-0.030273,-0.105957
1762435493435211,39.329269,3.048780,9.451220,0.994141,-0.029297,-0.105957
1762435493445067,35.792683,-0.609756,15.365854,0.995605,-0.027832,-0.107422
1762435493454918,5.487805,2.560976,15.731708,0.997070,-0.026855,-0.108887
1762435493464769,-7.926829,7.987805,20.000000,0.998535,-0.026855,-0.109863
1762435493474622,-10.487805,7.134147,25.121952,0.999023,-0.026367,-0.110840
1762435493484475,-46.158539,6.341464,26.219513,0.998535,-0.024902,-0.111816
1762435493494327,-62.500000,11.158537,27.926830,0.998535,-0.023926,-0.112305
1762435493504180,-71.219513,10.000000,32.195122,0.999023,-0.023438,-0.112305
1762435493514033,-93.658539,7.682927,32.804878,1.000000,-0.023926,-0.111816
1762435493523886,-101.524391,8.963415,33.719513,1.000488,-0.023926,-0.110840
1762435493533738,-78.963417,8.719512,34.878048,1.000977,-0.023438,-0.109863
1762435493543590,-79.878052,4.817073,34.512196,1.000977,-0.023926,-0.108887
1762435493553443,-84.390244,6.768293,32.012196,0.999512,-0.024414,-0.107422
1762435493563296,-66.585365,9.634147,30.426830,0.998535,-0.024902,-0.106934
1762435493573148,-64.207321,8.963415,26.585367,0.998535,-0.025879,-0.107422
1762435493583001,-51.219513,5.060976,22.195122,0.999512,-0.026367,-0.108398
1762435493592854,-19.085367,4.024390,19.268293,1.000000,-0.027832,-0.109375
1762435493602706,0.853659,5.853659,13.658537,1.000488,-0.029297,-0.109863
1762435493612559,11.402439,0.975610,8.658537,1.000000,-0.030273,-0.109863
1762435493622411,36.341465,0.182927,5.060976,0.998535,-0.030273,-0.108887
1762435493632264,46.463417,5.060976,-1.158537,0.997070,-0.029785,-0.107422
1762435493642117,52.256100,1.829268,-5.000000,0.996582,-0.030273,-0.105957
1762435493651969,73.658539,0.304878,-7.926829,0.997070,-0.030762,-0.104980
1762435493661822,87.317078,4.146341,-12.012196,0.998047,-0.031250,-0.104492
1762435493671675,97.012199,0.975610,-15.731708,0.999512,-0.031250,-0.104980
1762435493681529,108.231712,-4.329268,-16.158537,1.000000,-0.030762,-0.105957
1762435493691380,110.182930,-2.134146,-19.329269,1.000488,-0.030273,-0.106445
1762435493701233,98.658539,-3.353659,-20.975611,1.000488,-0.029785,-0.106445
1762435493711085,87.743904,-8.414635,-20.487804,1.000488,-0.028809,-0.106934
1762435493720938,78.353661,-4.817073,-21.524391,1.000488,-0.027832,-0.107422
1762435493730791,73.109756,-3.902439,-19.817074,1.000488,-0.026855,-0.106934
1762435493740644,58.475613,-8.170732,-18.963415,1.000000,-0.026367,-0.106934
1762435493750496,28.170732,-0.914634,-17.987804,1.000000,-0.025391,-0.107422
1762435493760349,11.707317,3.292683,-16.524391,1.000488,-0.024414,-0.108398
1762435493770201,2.378049,0.609756,-16.036585,1.001465,-0.024414,-0.109863
1762435493780054,-15.975610,3.414634,-14.634147,1.002441,-0.023926,-0.111816
1762435493789907,-34.756100,8.597561,-13.231708,1.002930,-0.023926,-0.113281
1762435493799759,-52.621952,8.719512,-12.500000,1.003418,-0.023926,-0.114258
1762435493809612,-55.731709,7.439024,-9.573171,1.001953,-0.023438,-0.114258
1762435493819465,-64.146339,7.378049,-7.743903,0.999512,-0.022461,-0.113770
1762435493829317,-88.353661,18.292683,-9.939025,0.997559,-0.023926,-0.112793
1762435493839170,-104.695122,19.756098,-7.743903,0.998047,-0.024902,-0.112305
1762435493849022,-85.548782,8.658537,-6.707317,0.999023,-0.024902,-0.111816
1762435493858875,-91.585365,22.560976,-10.914635,1.001465,-0.026367,-0.113281
1762435493868728,-80.060974,11.463415,-8.231708,1.003418,-0.026855,-0.111816
1762435493878580,-31.524391,1.890244,-7.682927,1.004883,-0.028809,-0.110840
1762435493888433,-57.682930,7.865854,-8.597561,1.001953,-0.028809,-0.107910
1762435493898286,-44.878052,4.878049,-11.829268,0.999023,-0.028320,-0.104492
1762435493908141,-27.987806,-1.524390,-6.646342,0.996582,-0.029297,-0.102051
1762435493917992,-23.841463,1.890244,-9.878049,0.995605,-0.029297,-0.100098
1762435493927843,-21.524391,-3.780488,-12.378049,0.997559,-0.030762,-0.100098
1762435493937696,7.500000,-10.182927,-10.182927,1.000000,-0.032227,-0.101074
1762435493947549,51.341465,-11.097561,-9.939025,1.002930,-0.032715,-0.102051
1762435493957402,53.780491,-20.975611,-9.939025,1.003418,-0.032715,-0.101562
1762435493967254,65.609756,-23.536587,-9.146341,1.001953,-0.032715,-0.100098
1762435493977107,59.146343,-22.560976,-6.158537,1.000000,-0.031738,-0.098145
1762435493986960,50.304878,-27.500000,-5.487805,0.998047,-0.030273,-0.096191
1762435493996812,36.585365,-28.475611,-1.097561,0.997559,-0.030273,-0.095215
1762435494006665,35.426830,-23.597561,2.256098,0.998535,-0.029785,-0.095215
1762435494016517,34.756100,-29.756098,5.243903,1.000488,-0.029297,-0.096191
1762435494026370,27.378050,-32.682926,8.475610,1.001465,-0.029297,-0.097656
1762435494036223,26.585367,-23.231709,10.000000,1.001465,-0.029297,-0.100098
1762435494046075,5.914634,-25.914635,13.719513,1.000000,-0.028320,-0.102051
1762435494055928,-6.158537,-23.963415,15.426829,0.998047,-0.027832,-0.104004
1762435494065781,-37.134148,-13.963415,16.768293,0.996582,-0.027344,-0.106445
1762435494075633,-45.731709,-12.378049,19.390244,0.996582,-0.026855,-0.108398
1762435494085486,-47.195122,-14.024390,21.646341,0.997559,-0.027344,-0.110352
1762435494095339,-57.073174,-3.597561,20.914635,0.997559,-0.027832,-0.111328
1762435494105191,-53.353661,0.060976,22.621952,0.997070,-0.028320,-0.111816
1762435494115044,-64.146339,0.792683,24.329269,0.996094,-0.028320,-0.112305
1762435494124896,-72.804878,11.402439,22.195122,0.994629,-0.027832,-0.112305
1762435494134749,-67.804878,13.048780,22.621952,0.993652,-0.027832,-0.112793
1762435494144604,-70.914635,13.719513,21.829269,0.993652,-0.028809,-0.113770
1762435494154455,-78.841469,19.451220,20.731709,0.995117,-0.029297,-0.115234
1762435494164307,-57.073174,17.317074,20.365854,0.996582,-0.029297,-0.115723
1762435494174160,-51.280491,13.841464,18.719513,0.997559,-0.029297,-0.116699
1762435494184012,-54.939026,14.024390,17.865854,0.998047,-0.029297,-0.115234
1762435494193865,-40.914635,10.670732,17.621952,0.998047,-0.028809,-0.112793
1762435494203719,-43.719513,6.768293,16.829269,0.998535,-0.028320,-0.109375
1762435494213570,-38.109756,4.085366,14.695123,0.998535,-0.027832,-0.105957
1762435494223423,-17.987804,-2.195122,17.500000,0.999023,-0.027344,-0.102051
1762435494233276,-8.109756,-1.036585,12.560976,1.000000,-0.028320,-0.099609
1762435494243128,-2.012195,1.463415,10.975610,1.000977,-0.028809,-0.098633
1762435494252981,40.426830,-17.073172,13.597561,1.000000,-0.027832,-0.098633
1762435494262833,45.365856,-5.731708,4.756098,1.000488,-0.028809,-0.100586
1762435494272687,22.682928,-0.487805,0.182927,1.000488,-0.030273,-0.102539
1762435494282539,76.158539,-21.829269,2.378049,1.000488,-0.030762,-0.104492
1762435494292392,70.365852,-11.585366,-3.353659,1.000000,-0.030762,-0.106934
1762435494302244,66.341461,-0.426829,-12.500000,1.000000,-0.030762,-0.107910
1762435494312096,102.621956,-19.085367,-7.682927,1.000000,-0.032227,-0.107910
1762435494321949,105.548782,-9.268293,-10.000000,0.998047,-0.031250,-0.106934
1762435494331802,81.890244,8.109756,-19.390244,0.997070,-0.030762,-0.105957
1762435494341655,90.121956,-0.548781,-16.524391,0.997070,-0.031250,-0.105957
1762435494351507,106.097565,2.682927,-15.670732,0.997559,-0.031738,-0.107422
1762435494361360,86.097565,11.463415,-20.365854,0.998047,-0.030762,-0.108887
1762435494371215,88.353661,12.195122,-22.682928,0.998535,-0.031250,-0.111328
1762435494381066,85.975609,11.646341,-18.048780,0.998047,-0.031250,-0.114258
1762435494390918,72.317078,14.207317,-19.634148,0.996582,-0.029785,-0.115723
1762435494400771,41.097561,21.036587,-24.207317,0.996582,-0.029297,-0.117188
1762435494410623,30.914635,22.256098,-20.304878,0.996582,-0.029297,-0.117676
1762435494420476,35.121952,17.682928,-16.585365,0.998047,-0.028320,-0.117676
1762435494430328,4.573171,23.902439,-17.926830,0.998535,-0.027832,-0.116699
1762435494440182,-4.634147,28.048780,-17.378050,1.000000,-0.027832,-0.114746
1762435494450034,1.036585,18.109756,-9.634147,1.000488,-0.027344,-0.112305
1762435494459887,-23.170732,23.414635,-10.426829,1.000488,-0.025879,-0.110352
1762435494469739,-39.878048,26.646341,-11.036586,1.000977,-0.025879,-0.108887
1762435494479592,-40.365856,17.682928,-5.121951,1.001465,-0.026367,-0.108398
1762435494489444,-55.975613,14.390244,-2.500000,1.002441,-0.025391,-0.108398
1762435494499297,-59.207317,13.536586,-5.487805,1.002930,-0.025391,-0.107910
1762435494509150,-43.231709,8.109756,-0.853659,1.003418,-0.026855,-0.107422
1762435494519002,-40.609756,-2.317073,1.646342,1.001953,-0.026855,-0.105957
1762435494528855,-50.487804,3.536585,-3.109756,1.001465,-0.027344,-0.104980
1762435494538708,-44.695122,8.414635,-3.780488,1.001953,-0.029297,-0.103516
1762435494548561,-9.024390,-5.609756,1.463415,1.001953,-0.029785,-0.102051
1762435494558413,11.951220,-11.768293,2.012195,1.000977,-0.029297,-0.101074
1762435494568265,13.292684,0.000000,-3.597561,0.999512,-0.030273,-0.099609
1762435494578118,5.426829,-11.829268,-3.353659,0.998535,-0.031738,-0.098633
1762435494587971,17.012196,-17.073172,-3.170732,0.999023,-0.032715,-0.099121
1762435494597823,44.878052,-9.573171,-3.414634,0.998535,-0.032715,-0.099609
1762435494607679,69.329269,-20.182928,-2.743902,0.998047,-0.032227,-0.099121
1762435494617529,59.207317,-20.365854,-5.731708,0.996582,-0.034180,-0.099609
1762435494627381,49.329269,-8.353659,-5.792683,0.996094,-0.035645,-0.099609
1762435494637235,74.207321,-18.719513,-2.012195,0.995117,-0.034180,-0.100098
1762435494647087,62.743904,-21.463415,-3.414634,0.995117,-0.033203,-0.101562
1762435494656940,57.865856,-11.951220,-4.085366,0.995117,-0.033691,-0.102539
1762435494666793,62.987808,-22.073172,3.109756,0.993164,-0.033691,-0.103027
1762435494676645,29.207317,-23.597561,6.036585,0.992188,-0.032227,-0.102539
1762435494686497,1.097561,-12.682927,1.158537,0.991699,-0.030762,-0.102539
1762435494696350,0.000000,-12.195122,4.146341,0.992676,-0.031250,-0.103027
1762435494706202,-1.402439,-12.378049,11.585366,0.995117,-0.032227,-0.104492
1762435494716055,-31.585367,-3.963415,10.487805,0.996582,-0.031738,-0.106445
1762435494725908,-32.804878,1.158537,14.695123,0.996094,-0.029785,-0.107910
1762435494735760,-43.536587,-11.829268,23.780489,0.991699,-0.026855,-0.108887
1762435494745613,-107.560982,-0.487805,19.939024,0.988770,-0.026367,-0.109863
1762435494755466,-144.573181,16.646341,20.121952,0.987793,-0.028320,-0.111328
1762435494765318,-133.353668,10.609756,30.121952,0.990234,-0.028809,-0.114258
1762435494775171,-142.195129,6.524390,28.963415,0.995117,-0.027344,-0.117676
1762435494785024,-153.841461,21.646341,21.158537,1.001953,-0.028809,-0.119629
1762435494794876,-122.804878,9.085366,25.853659,1.007324,-0.031738,-0.119141
1762435494804729,-113.414635,-8.719512,29.817074,1.010254,-0.032715,-0.116211
1762435494814581,-150.182938,10.609756,24.207317,1.008301,-0.030273,-0.110840
1762435494824433,-149.329269,0.914634,24.390244,1.006836,-0.027832,-0.103027
1762435494834290,-103.658539,-7.804878,27.073172,1.004395,-0.029297,-0.097656
1762435494844141,-130.000000,1.524390,27.560976,1.005371,-0.029297,-0.094727
1762435494853992,-113.048782,-13.841464,20.548780,1.005371,-0.028809,-0.094238
1762435494863845,-67.317078,-10.731708,18.109756,1.008301,-0.031250,-0.097656
1762435494873697,-16.707317,-13.902439,16.951220,1.008789,-0.031738,-0.100098
1762435494883550,7.865854,-37.195122,9.634147,1.006836,-0.033691,-0.103516
1762435494893403,-10.975610,-17.560976,3.658537,1.002441,-0.035156,-0.104980
1762435494903256,53.048782,-17.195122,-3.963415,0.999023,-0.035645,-0.104980
1762435494913108,52.804878,-29.268293,-5.670732,0.996094,-0.035645,-0.105957
1762435494922961,64.329269,-24.146341,-12.439025,0.991699,-0.035645,-0.104492
1762435494932813,103.414635,-1.341463,-24.817074,0.994629,-0.038574,-0.104492
1762435494942666,116.280487,-14.451220,-24.695122,0.996582,-0.041016,-0.104980
1762435494952518,179.878052,-22.012196,-28.353659,0.999023,-0.041504,-0.105957
1762435494962371,200.670731,-7.256098,-32.073170,0.998047,-0.039551,-0.105957
1762435494972224,219.329269,-8.475610,-39.634148,0.997070,-0.039551,-0.105469
1762435494982076,183.780487,-23.902439,-36.219513,0.995605,-0.040039,-0.105957
1762435494991929,180.914642,-8.658537,-37.378048,0.993652,-0.038086,-0.106445
1762435495001782,167.682938,-0.853659,-38.170734,0.997070,-0.036621,-0.108398
1762435495011634,160.060974,-15.121952,-37.195122,1.000488,-0.035645,-0.110352
1762435495021487,162.743912,-10.914635,-32.804878,1.003906,-0.036133,-0.112793
1762435495031340,150.121948,-1.036585,-30.487806,1.004883,-0.035156,-0.113281
1762435495041192,97.987808,7.378049,-36.219513,1.006348,-0.034668,-0.115234
1762435495051045,84.146347,-1.524390,-25.000000,1.002441,-0.031738,-0.114746
1762435495060897,95.548782,9.146341,-16.585365,0.998535,-0.029297,-0.115723
1762435495070752,-16.890244,27.743902,-22.987806,0.994629,-0.029297,-0.115723
1762435495080603,-24.695122,30.548780,-22.500000,0.997070,-0.032227,-0.117676
1762435495090456,19.329269,26.585367,-0.121951,0.996582,-0.029785,-0.121582
1762435495100308,-35.975609,27.926830,-5.914634,0.996094,-0.025391,-0.125000
1762435495110161,-106.585365,51.402439,-17.682928,1.001953,-0.029297,-0.127441
1762435495120014,-57.134148,31.951220,4.268293,1.003906,-0.032227,-0.126953
1762435495129866,-70.731712,22.256098,9.085366,1.005371,-0.030273,-0.125000
1762435495139719,-164.146347,49.329269,-9.939025,1.005859,-0.028320,-0.120605
1762435495149571,-66.707321,32.073170,5.548780,1.003418,-0.029785,-0.113770
1762435495159424,-30.304878,-3.048780,28.658537,0.997070,-0.028809,-0.107422
1762435495169277,-140.975616,54.939026,5.426829,0.992188,-0.028320,-0.102051
1762435495179129,-158.353668,45.365856,3.658537,0.993164,-0.030273,-0.100098
1762435495188982,-24.878050,-1.829268,19.207317,0.997070,-0.032227,-0.103027
1762435495198835,-32.317074,18.475611,9.329268,1.001465,-0.033203,-0.108398
1762435495208687,13.414635,19.634148,-3.719512,1.004395,-0.037109,-0.109375
1762435495218540,84.756096,-10.426829,6.158537,1.006348,-0.041992,-0.110840
1762435495228392,48.353661,-3.292683,3.963415,1.001465,-0.039062,-0.107422
1762435495238245,62.256100,-2.682927,-11.768293,0.997070,-0.035645,-0.102051
1762435495248098,125.792686,-7.500000,-4.878049,0.994629,-0.037598,-0.096191
1762435495257950,139.451218,-15.365854,5.487805,0.990234,-0.038086,-0.091309
1762435495267803,66.829269,-18.841463,-4.390244,0.990234,-0.037598,-0.088867
1762435495277655,94.634148,13.536586,-14.329268,0.995605,-0.040039,-0.090332
1762435495287508,166.158539,-17.987804,4.146341,1.000000,-0.041016,-0.094727
1762435495297361,192.134155,-43.353661,4.146341,1.000000,-0.039551,-0.098145
1762435495307215,125.731712,3.536585,-13.231708,0.998535,-0.041504,-0.102539
1762435495317066,119.512199,-5.182927,-1.768293,0.995117,-0.041504,-0.104004
1762435495326919,128.292679,-36.463417,7.500000,0.993164,-0.038574,-0.107422
1762435495336771,45.548782,5.365854,-1.951220,0.991699,-0.035156,-0.109375
1762435495346624,63.963417,4.329268,2.195122,0.994141,-0.035156,-0.109375
1762435495356477,47.012196,-26.402439,16.951220,0.998535,-0.036621,-0.110352
1762435495366331,-26.585367,10.365854,9.939025,1.000977,-0.034668,-0.109375
1762435495376182,-16.646341,9.268293,15.000000,1.002930,-0.031250,-0.107422
1762435495386035,-12.195122,-12.073171,26.219513,1.002441,-0.030273,-0.105957
1762435495395887,-84.573174,8.414635,27.134148,0.998535,-0.029785,-0.104492
1762435495405740,-113.780487,13.536586,28.963415,0.995605,-0.027832,-0.103516
1762435495415592,-146.951218,9.756098,29.329269,0.995117,-0.027832,-0.106934
1762435495425445,-197.256104,10.487805,32.256100,0.998047,-0.026367,-0.111328
1762435495435298,-132.804886,0.060976,29.573172,1.001953,-0.028320,-0.115234
1762435495445150,-147.134155,5.304878,29.207317,1.006836,-0.032715,-0.118652
1762435495455003,-128.048782,-7.195122,31.524391,1.005371,-0.032227,-0.116211
1762435495464856,-117.621956,-10.487805,27.317074,1.003418,-0.031738,-0.113281
1762435495474708,-170.304886,8.231708,18.536587,1.000977,-0.031250,-0.107422
1762435495484561,-113.597565,-13.597561,18.780489,0.998535,-0.033203,-0.101562
1762435495494414,-82.926834,-11.707317,27.073172,0.998535,-0.033203,-0.098145
1762435495504266,-81.707321,-1.036585,10.975610,0.996094,-0.031250,-0.095703
1762435495514119,-82.439026,-1.402439,1.829268,1.000000,-0.035645,-0.098145
1762435495523971,-16.463415,-6.890244,7.987805,1.003418,-0.037598,-0.101562
1762435495533824,16.097561,-26.097561,-2.439024,1.006836,-0.038086,-0.105957
1762435495543678,3.231707,-13.536586,-20.000000,1.008301,-0.040039,-0.108398
1762435495553530,104.695122,-15.914635,-19.817074,1.006348,-0.043457,-0.108887
1762435495563382,128.292679,-31.890245,-1.402439,0.998535,-0.038574,-0.106445
1762435495573236,55.975613,-35.000000,-20.975611,0.987305,-0.032227,-0.100586
1762435495583087,28.292683,13.963415,-39.817074,0.988281,-0.037598,-0.098633
1762435495592940,52.926830,-15.792684,-19.024391,0.992676,-0.040039,-0.097656
1762435495602794,108.963417,-56.829269,-17.134148,0.998535,-0.037109,-0.100098
1762435495612645,88.597565,9.390244,-36.951221,1.003906,-0.037109,-0.103027
1762435495622498,169.329269,-9.634147,-28.963415,1.006836,-0.039551,-0.102539
1762435495632351,160.121948,-67.317078,-12.073171,1.001953,-0.039551,-0.103027
1762435495642203,43.658539,3.841464,-30.975611,0.993164,-0.035156,-0.103027
1762435495652056,35.243904,20.975611,-34.085365,0.991699,-0.033691,-0.104492
1762435495661908,42.804878,-36.707317,-12.743903,0.994141,-0.034180,-0.108887
1762435495671762,1.280488,-9.329268,-16.829269,0.998047,-0.033691,-0.113770
1762435495681614,-14.756098,29.451220,-24.146341,1.004883,-0.034180,-0.117188
1762435495691466,-6.158537,-7.682927,-12.682927,1.011719,-0.034668,-0.119141
1762435495701319,-34.207317,-18.963415,-2.195122,1.010254,-0.030762,-0.118164
1762435495711172,-46.951221,25.060976,-5.365854,1.004395,-0.027344,-0.113281
1762435495721025,-127.500000,27.560976,-2.987805,1.001953,-0.028320,-0.109375
1762435495730877,-204.085373,4.634147,5.121951,1.000977,-0.028809,-0.106934
1762435495740730,-168.597565,34.695122,10.609756,1.001953,-0.026855,-0.109375
1762435495750582,-153.536591,40.975609,12.926829,1.006836,-0.025391,-0.111816
1762435495760435,-149.512192,4.634147,11.951220,1.008301,-0.027832,-0.115723
1762435495770290,-167.195129,15.670732,18.902439,1.007812,-0.032227,-0.118652
1762435495780141,-157.804886,50.365856,14.024390,1.007812,-0.032715,-0.119629
1762435495789993,-179.573181,20.182928,7.926829,1.010254,-0.032715,-0.120117
1762435495799846,-147.256104,15.914635,8.963415,1.011719,-0.034180,-0.119141
1762435495809698,-88.048782,40.487804,10.670732,1.016113,-0.037109,-0.116699
1762435495819551,-111.402443,37.500000,6.158537,1.022949,-0.038574,-0.112793
1762435495829404,-106.951225,8.963415,4.146341,1.026367,-0.036133,-0.108398
1762435495839257,-50.670734,17.256098,6.951220,1.027344,-0.033203,-0.104004
1762435495849109,-80.670731,26.280489,6.097561,1.031250,-0.032715,-0.099121
1762435495858961,-127.195122,-8.353659,2.256098,1.034668,-0.033691,-0.093750
1762435495868814,-101.341469,-12.560976,2.012195,1.035156,-0.033203,-0.090820
1762435495878667,-56.585365,-3.597561,-1.341463,1.033203,-0.031738,-0.088379
1762435495888519,-30.000000,-18.658537,-8.170732,1.030273,-0.034180,-0.088867
1762435495898372,12.926829,-26.280489,-8.292683,1.025391,-0.039062,-0.088867
1762435495908224,64.024391,-12.500000,-16.158537,1.021973,-0.042480,-0.090820
1762435495918077,32.743904,10.975610,-41.280487,1.026367,-0.047852,-0.096680
1762435495927930,92.926834,36.463417,-58.658539,1.037109,-0.054199,-0.107910
1762435495937783,229.024399,35.426830,-63.658539,1.048828,-0.060547,-0.119629
1762435495947635,264.329285,46.463417,-88.109756,1.056152,-0.065430,-0.129395
1762435495957488,165.609756,96.463417,-108.170731,1.058105,-0.065918,-0.134766
1762435495967340,159.756104,45.304878,-140.304886,1.047852,-0.065918,-0.134766
1762435495977193,737.560974,75.487808,-71.341469,1.026367,-0.058105,-0.123047
1762435495987046,341.646362,-116.890244,-93.902443,1.029297,-0.054688,-0.112793
1762435495996898,-5.243903,100.548782,-131.524399,1.096191,-0.077148,-0.108398
1762435496006753,127.865860,-65.060974,-31.829269,1.116211,-0.046387,-0.091309
1762435496016605,264.695129,-43.780487,-150.731705,1.125000,-0.029297,-0.095703
1762435496026456,212.804886,202.865860,-104.573174,1.142090,-0.058105,-0.110840
1762435496036309,250.182938,137.621948,-12.987805,1.105469,-0.072754,-0.120605
1762435496046161,599.024414,34.512196,-77.012199,1.045410,-0.072754,-0.123535
1762435496056014,978.109802,102.317078,14.451220,0.991211,-0.070801,-0.131836
1762435496065866,809.329285,-115.243904,162.195129,0.956055,-0.024902,-0.139160
1762435496075720,239.939026,-217.256104,-15.060976,0.968262,-0.000977,-0.154785
1762435496085572,-256.097565,157.865860,101.097565,1.031738,0.015137,-0.183594
1762435496095424,-1394.024414,119.390244,70.914635,1.055664,0.092773,-0.210449
1762435496105277,-1244.451294,-102.195122,48.292683,1.066895,0.115234,-0.227539
1762435496115130,-1682.439087,-165.914642,214.024399,1.123535,0.080566,-0.235352
1762435496124982,-1997.926880,-149.878052,223.414642,1.122070,0.107422,-0.225586
1762435496134835,-1266.585449,-76.951218,23.109756,1.211426,0.046875,-0.212891
1762435496144688,-1769.634155,-41.951221,25.731709,1.287598,0.045898,-0.249023
1762435496154540,486.463440,-652.743896,264.878052,1.172363,0.160645,-0.208008
1762435496164393,170.975616,371.158539,-193.048782,1.168945,0.072754,-0.243652
1762435496174245,-1878.475708,741.036621,-502.256104,1.201172,0.021973,-0.191406
1762435496184098,1260.975586,-1415.731689,308.658539,1.139648,0.007812,-0.151855
1762435496193951,608.353699,-23.414635,-35.670734,1.041016,0.100586,-0.141113
1762435496203803,-1750.304932,816.280518,-353.048798,1.017578,0.134277,-0.084473
1762435496213656,430.304901,-365.609772,66.280487,1.017090,0.091797,-0.150879
1762435496223509,-76.768295,204.390244,-396.341461,0.924316,0.001465,-0.173340
1762435496233361,871.707336,802.012207,91.097565,0.869141,-0.005371,-0.137695
1762435496243216,173.719513,-78.597565,-488.780487,0.932129,-0.042969,-0.258789
1762435496253068,1256.951294,-193.414642,-99.634148,0.883301,-0.078125,-0.327637
1762435496262919,499.207336,334.634155,-147.500000,0.828613,-0.028809,-0.338379
1762435496272772,1116.890259,219.024399,-387.134155,0.884766,0.010254,-0.398926
1762435496282624,224.756104,-263.719513,-142.317078,0.859375,0.059570,-0.374023
1762435496292477,-761.280518,415.853668,-37.256100,0.836426,0.167480,-0.321289
1762435496302330,-1968.597656,555.609741,-182.743912,0.882324,0.154297,-0.299805
1762435496312183,-728.597595,-66.768295,199.634155,0.895996,0.039551,-0.237305
1762435496322035,19.817074,183.170731,178.048782,0.901367,0.033691,-0.223633
1762435496331888,-1792.012207,105.670731,-354.146362,0.946777,-0.040527,-0.200684
1762435496341740,375.975616,-184.268295,-59.268295,1.022949,-0.098633,-0.197266
1762435496351592,1930.731812,-357.987823,19.390244,1.072266,-0.044434,-0.165039
1762435496361445,-1079.817139,-160.853668,-30.731709,1.118652,0.095703,-0.114746
1762435496371298,-1689.512207,-619.024414,-222.012207,1.133789,0.112305,-0.063477
1762435496381151,1675.487793,-925.975647,382.256104,1.096191,0.106445,-0.039551
1762435496391004,1358.719604,-265.487823,381.402435,1.005859,0.134766,0.024902
1762435496400856,-1997.926880,-223.048782,-57.560978,0.855469,0.055176,0.028320
1762435496410709,1015.000000,-135.182938,409.146362,0.850586,-0.011230,-0.055176
1762435496420561,794.329285,-102.560982,237.500000,0.866699,-0.038574,-0.186523
1762435496430414,1079.024414,-173.963425,268.292694,0.935547,-0.043457,-0.289551
1762435496440267,1349.573242,-642.500000,291.707336,0.967285,-0.047852,-0.333008
1762435496450120,1396.585449,-634.451233,200.426834,0.937500,-0.041016,-0.350098
1762435496459972,310.853668,-6.280488,91.951225,0.948730,-0.033203,-0.286133
1762435496469824,856.341492,20.792683,145.731705,0.995605,-0.012207,-0.231934
1762435496479679,-1565.792725,708.597595,-106.951225,1.078613,-0.089844,-0.250488
1762435496489531,457.560974,792.682922,416.219513,1.123047,0.134766,-0.327637
1762435496499382,-1329.207397,523.353699,-351.097565,1.163086,0.283691,-0.353027
1762435496509235,-1391.158569,292.439026,114.573174,1.174805,0.086914,-0.487793
1762435496519088,-469.085388,1207.561035,232.439026,1.116699,0.113770,-0.414551
1762435496528940,-1351.463501,1025.914673,-71.768295,1.222656,0.049805,-0.432129
1762435496538793,-135.731705,399.878052,418.963409,1.230469,0.045898,-0.416016
1762435496548646,-12.012196,68.719513,147.317078,1.202148,0.068359,-0.452637
1762435496558498,2.804878,95.060974,220.487808,1.204102,0.056641,-0.393555
1762435496568351,342.012207,401.646362,-8.109756,1.225586,0.052246,-0.326660
1762435496578204,1819.268311,778.841492,-38.841465,1.210938,0.100586,-0.289551
1762435496588056,-297.073181,71.097565,-270.670746,1.258789,0.154785,-0.233398
1762435496597909,-1296.585449,209.451218,-292.073181,1.254395,0.099609,-0.157715
1762435496607761,1714.695190,884.085388,-123.841469,1.243164,0.064453,-0.079590
1762435496617614,670.731750,14.146341,-285.487823,1.194824,0.021973,-0.069824
1762435496627466,-1831.219604,821.097595,-448.536591,1.165039,-0.001953,-0.082031
1762435496637319,1851.585449,389.939026,49.756100,1.139160,0.009277,-0.117676
1762435496647172,-448.597565,-92.560974,-366.951233,1.133301,0.004883,-0.168945
1762435496657024,-803.414673,-85.609756,-302.073181,1.124023,-0.018555,-0.179688
1762435496666877,657.195129,-211.646347,-59.024391,1.117188,-0.029297,-0.137695
1762435496676730,-487.987823,-331.829285,-124.817078,1.103027,-0.066895,-0.055176
1762435496686582,-308.902435,-147.073181,40.243904,1.082031,-0.061523,0.043457
1762435496696435,638.231750,-194.268295,72.012199,1.046387,-0.019531,0.119629
1762435496706288,1326.524414,-15.243903,173.963425,1.020996,-0.085449,0.143066
1762435496716142,-17.926830,-125.304878,175.182938,1.024902,-0.111816,0.114746
1762435496725994,-699.268311,-693.414673,146.768295,1.033203,-0.109863,0.082031
1762435496735845,1061.829346,-446.829285,296.097565,1.036621,-0.074707,0.020020
1762435496745698,-547.378052,-252.804886,195.304886,1.036621,-0.067383,0.024414
1762435496755551,-487.378052,-821.158569,246.402451,1.041504,-0.055176,-0.006836
1762435496765403,-527.865845,-307.256104,202.682938,1.041016,-0.011230,0.017578
1762435496775257,-979.451233,-253.475616,-10.975610,1.047363,-0.000488,0.048340
1762435496785109,-775.426819,-164.146347,50.975613,1.059570,-0.025391,0.091797
1762435496794961,125.975616,-282.621948,3.475610,1.065918,-0.043945,0.101562
1762435496804814,46.463417,-122.073174,-17.743902,1.061035,-0.039551,0.088867
1762435496814666,284.573181,-57.743904,-36.585365,1.057129,-0.041992,0.082031
1762435496824519,287.073181,-33.963417,5.304878,1.061523,-0.027832,0.046875
1762435496834373,361.951233,-15.487805,-91.707321,1.048828,-0.015137,0.015137
1762435496844224,234.817078,68.475609,-102.987808,1.035156,-0.005859,-0.007324
1762435496854077,298.536591,53.780491,-124.695122,1.030762,0.003418,-0.037109
1762435496863930,245.060974,101.768295,-151.768295,1.025391,0.016113,-0.053711
1762435496873782,1128.963501,120.304878,-119.146347,1.013672,0.029297,-0.051270
1762435496883636,329.207336,163.170731,-147.317078,1.010742,0.059570,-0.027832
1762435496893488,-883.597595,169.146347,-195.060974,1.000977,0.097168,0.019043
1762435496903341,-160.975616,253.963425,-150.670731,1.021484,0.062012,0.077637
1762435496913193,993.231750,221.402451,-81.585365,1.040527,0.016602,0.122559
1762435496923046,79.268295,167.621948,-127.256104,1.026855,0.027344,0.152832
1762435496932898,620.000000,205.365860,-40.670734,1.023926,0.042480,0.144531
1762435496942751,164.695129,135.975616,-84.146347,1.067383,0.047852,0.120605
1762435496952605,123.597565,154.207321,-44.085365,1.062012,0.020020,0.062988
1762435496962456,259.817078,256.951233,25.304878,1.062012,-0.010254,0.063965
1762435496972309,292.134155,-143.292679,-87.987808,1.046387,-0.020508,0.039551
1762435496982161,745.792725,-28.658537,163.048782,0.987305,-0.002441,0.026367
1762435496992014,-364.512207,309.512207,-111.768295,0.979492,0.031250,0.031250
1762435497001867,50.000000,-169.329269,142.743912,0.965820,0.030273,0.049805
1762435497011722,-890.914673,186.768295,39.451221,0.927734,0.027832,0.039551
1762435497021572,-668.292725,234.451218,78.902443,0.952148,-0.003418,0.058105
1762435497031425,372.439026,-237.500000,224.268295,0.960938,-0.029297,0.052246
1762435497041277,-362.195129,78.414635,130.914642,0.964355,-0.021973,0.061035
1762435497051130,296.524384,40.609756,151.768295,0.995117,0.000488,0.072266
1762435497060982,-666.280518,-50.365856,109.451225,1.040039,-0.012207,0.056641
1762435497070835,-316.402435,15.121952,202.012207,1.069824,-0.018555,0.066895
1762435497080688,288.597565,-241.524399,253.780487,1.072266,-0.004883,0.083008
1762435497090540,-858.414673,-139.268295,154.451218,1.040039,-0.011230,0.105469
1762435497100393,-19.146341,9.634147,189.085373,1.015625,-0.028320,0.125000
1762435497110246,142.134155,-109.207321,178.170731,1.013184,-0.046387,0.110352
1762435497120099,-82.560974,-59.085369,121.585365,1.016113,-0.071777,0.080566
1762435497129951,998.719543,-46.280487,221.524399,1.030762,-0.056641,0.044922
1762435497139803,-131.097565,-303.292694,157.621948,1.044434,0.030273,0.050293
1762435497149656,-1299.146362,-164.024399,26.890245,1.035156,0.036133,0.017578
1762435497159509,-390.609772,15.548780,90.304878,1.035156,-0.012695,0.033691
1762435497169361,219.817078,-207.987808,150.853668,1.011230,-0.051758,0.042480
1762435497179216,81.707321,-807.926819,88.048782,0.950195,-0.057129,0.080078
1762435497189068,951.463440,-523.536621,117.987808,0.862793,-0.020020,0.124023
1762435497198919,-343.231720,-132.134155,47.134148,0.787109,0.019043,0.161621
1762435497208772,-514.695129,-377.621948,-14.695123,0.736328,0.004395,0.167480
1762435497218625,-202.682938,-416.280487,-35.975609,0.704102,-0.044434,0.142090
1762435497228477,-12.804878,-685.304871,-158.353668,0.679688,-0.104980,0.117676
1762435497238330,872.500000,-9.451220,-78.719513,0.690918,-0.155762,0.013184
1762435497248183,809.756104,60.243904,-90.914635,0.802734,-0.196777,-0.140625
1762435497258035,627.987793,120.609756,-236.951218,0.851562,-0.185547,-0.229980
1762435497267888,423.780487,107.195122,-540.426819,0.892090,-0.229492,-0.332031
1762435497277741,1335.121948,290.060974,-157.378052,0.939941,-0.221191,-0.429199
1762435497287593,692.743896,330.975616,-329.573181,0.944336,-0.071289,-0.414551
1762435497297446,-1997.926880,757.560974,-471.158539,0.997559,0.042480,-0.355469
1762435497307298,-1997.926880,95.731712,-92.073174,1.025879,-0.080078,-0.283203
1762435497317151,-650.182922,720.853699,328.536591,1.054199,-0.131348,-0.241699
1762435497327004,-1388.475586,-822.195129,126.463417,1.086426,-0.125488,-0.179688
1762435497336856,-1022.682922,-127.987808,55.060978,1.091309,-0.170898,-0.102539
1762435497346709,-158.658539,252.865860,-148.780487,1.066406,-0.131348,-0.067383
1762435497356561,1369.451294,-429.756104,-91.524391,1.080078,-0.220703,-0.081055
1762435497366414,1349.207397,-244.817078,9.024390,1.066895,-0.230957,-0.069336
1762435497376267,872.012207,-251.951233,-275.670746,1.059082,-0.232422,-0.104980
1762435497386120,-235.609756,-6.097561,-220.060974,1.079590,-0.283203,-0.169922
1762435497395972,1413.353638,-267.743896,67.378052,1.079590,-0.234375,-0.204590
1762435497405825,380.060974,-256.646362,-252.073181,1.026855,-0.222656,-0.218750
1762435497415680,346.707336,127.682930,-223.170731,1.054688,-0.216309,-0.279785
1762435497425530,1409.451294,-60.000000,56.463417,1.029785,-0.184082,-0.268555
1762435497435382,-418.719513,-73.475609,-150.853668,0.990723,-0.121582,-0.278320
1762435497445235,-410.609772,251.463425,-160.182938,1.002930,-0.121582,-0.308594
1762435497455088,-1490.182983,176.341461,-45.792683,1.002930,-0.120605,-0.306641
1762435497464941,-613.170776,52.073174,-62.682930,0.982910,-0.137207,-0.311523
1762435497474793,-779.817078,358.597565,-160.609756,0.994141,-0.211914,-0.329590
